timestamp,compression_number,z_value,esp_id,imu_number,ax,ay,az,gx,gy,gz
1772551335.1622968,0,0.0,63261,4,-0.100556,0.349553,-11.592725,-0.026913,-0.005196,-0.003997
1772551335.1689322,1,0.0,63290,1,0.972046,0.282516,-11.535264,0.000799,-0.00493,-0.031443
1772551335.1751697,1,0.0,63290,2,1.201889,-0.191536,-11.300632,-0.011858,0.011858,-0.033974
1772551335.1806605,1,0.0,63290,3,-0.172383,-0.071826,-11.693281,-0.043034,-0.00493,-0.020118
1772551335.185829,1,0.0,63290,4,-0.09098,0.311246,-11.621455,-0.026913,-0.005862,-0.003997
1772551335.192721,1,0.0,63319,1,0.967257,0.301669,-11.568783,0.000133,-0.005596,-0.031842
1772551335.198295,1,0.0,63319,2,1.201889,-0.172383,-11.305421,-0.012257,0.011858,-0.034107
1772551335.205159,1,0.0,63319,3,-0.167594,-0.062249,-11.674128,-0.044499,-0.006528,-0.020118
1772551335.210803,1,0.0,63319,4,-0.129287,0.325611,-11.60709,-0.026513,-0.006395,-0.003597
1772551335.2227528,1,0.0,63348,1,0.957681,0.292093,-11.549629,-0.000266,-0.004263,-0.031842
1772551335.2282588,1,0.0,63348,2,1.173159,-0.167594,-11.314998,-0.01279,0.011591,-0.034374
1772551335.2370112,1,0.0,63348,3,-0.181959,-0.057461,-11.707646,-0.044233,-0.005862,-0.019452
1772551335.2421105,1,0.0,63348,4,-0.114922,0.325611,-11.631032,-0.026646,-0.006795,-0.003198
1772551335.2516007,1,0.0,63377,1,0.972046,0.296881,-11.568783,0.0004,-0.00413,-0.031709
1772551335.2573555,1,0.0,63377,2,1.182736,-0.177171,-11.300632,-0.011858,0.010792,-0.032508
1772551335.2649236,1,0.0,63377,3,-0.191536,-0.071826,-11.693281,-0.045032,-0.005995,-0.019452
1772551335.2701309,1,0.0,63377,4,-0.114922,0.301669,-11.63582,-0.02638,-0.005862,-0.003064
1772551335.279887,1,0.0,63406,1,0.972046,0.292093,-11.554418,0.000533,-0.004397,-0.031709
1772551335.2873511,1,0.0,63406,2,1.182736,-0.181959,-11.324574,-0.01279,0.011724,-0.033708
1772551335.2926013,1,0.0,63406,3,-0.172383,-0.071826,-11.69807,-0.044899,-0.005995,-0.019585
1772551335.3010561,1,0.0,63406,4,-0.114922,0.316035,-11.640609,-0.026646,-0.005462,-0.00373
1772551335.3084803,1,0.0,63435,1,0.962469,0.296881,-11.573571,0.000266,-0.00413,-0.032508
1772551335.3153067,1,0.0,63435,2,1.158794,-0.177171,-11.310209,-0.012657,0.010525,-0.034107
1772551335.3209739,1,0.0,63435,3,-0.162806,-0.057461,-11.683704,-0.0441,-0.005862,-0.018652
1772551335.3305511,1,0.0,63435,4,-0.114922,0.320823,-11.621455,-0.026779,-0.006395,-0.003864
1772551335.3386128,1,0.0,63464,1,0.967257,0.296881,-11.573571,0.000666,-0.005329,-0.032109
1772551335.3463054,1,0.0,63464,2,1.201889,-0.167594,-11.314998,-0.012524,0.011058,-0.033441
1772551335.3517635,1,0.0,63464,3,-0.177171,-0.071826,-11.683704,-0.044499,-0.005862,-0.019985
1772551335.3598604,1,0.0,63464,4,-0.124498,0.320823,-11.597513,-0.025847,-0.007061,-0.003997
1772551335.3669841,1,0.0,63493,1,0.972046,0.292093,-11.563994,0.000533,-0.004397,-0.031043
1772551335.3762105,1,0.0,63493,2,1.16837,-0.186748,-11.334151,-0.013456,0.011325,-0.034773
1772551335.3818047,1,0.0,63493,3,-0.177171,-0.081403,-11.678916,-0.044366,-0.006129,-0.018786
1772551335.391608,1,0.0,63493,4,-0.105345,0.320823,-11.597513,-0.025714,-0.006129,-0.003997
1772551335.4255936,1,0.0,63522,1,0.962469,0.311246,-11.592725,-0.000266,-0.004397,-0.031576
1772551335.4346015,1,0.0,63522,2,1.197101,-0.181959,-11.305421,-0.012657,0.011325,-0.033841
1772551335.4399347,1,0.0,63522,3,-0.167594,-0.076614,-11.702858,-0.044899,-0.006262,-0.019185
1772551335.445823,1,0.0,63522,4,-0.100556,0.344765,-11.63582,-0.026513,-0.006395,-0.003997
1772551335.4512928,1,0.0,63551,1,0.967257,0.292093,-11.563994,0.000533,-0.003464,-0.031309
1772551335.4563096,1,0.0,63551,2,1.187524,-0.177171,-11.295844,-0.012524,0.011191,-0.034107
1772551335.4615011,1,0.0,63551,3,-0.201113,-0.100556,-11.707646,-0.044899,-0.005995,-0.020118
1772551335.4666421,1,0.0,63551,4,-0.114922,0.344765,-11.60709,-0.02638,-0.006795,-0.003331
1772551335.4718146,1,0.0,63580,1,0.952892,0.306458,-11.559206,0.000266,-0.003997,-0.031576
1772551335.4767702,1,0.0,63580,2,1.197101,-0.158017,-11.295844,-0.012923,0.010525,-0.033841
1772551335.4819376,1,0.0,63580,3,-0.177171,-0.057461,-11.659762,-0.044632,-0.006262,-0.019718
1772551335.4870708,1,0.0,63580,4,-0.890643,0.383072,-11.324574,-0.007328,-0.039703,0.000666
1772551335.4924552,1,0.0,63609,1,-1.144428,0.565032,-10.860099,0.024914,0.014655,-0.059288
1772551335.5000596,1,0.0,63609,2,0.086191,0.167594,-10.85531,-0.037704,0.055025,-0.057689
1772551335.5051527,1,0.0,63609,3,-0.47884,0.296881,-12.282255,-0.024248,0.062619,-0.045299
1772551335.5132365,1,0.0,63609,4,-0.78051,0.153229,-11.123461,0.011991,-0.054358,0.02225
1772551335.5184839,1,0.0,63638,1,-0.177171,0.282516,-11.415554,-0.032642,0.01772,-0.086067
1772551335.5269172,1,0.0,63638,2,0.407014,-0.383072,-11.678916,0.007061,0.030243,-0.079273
1772551335.5325556,1,0.0,63638,3,-0.924162,0.402226,-11.93749,-0.11298,0.019585,-0.046631
1772551335.5433993,1,0.0,63638,4,-0.933739,0.220267,-12.023681,-0.056623,-0.029711,0.027579
1772551335.5520334,1,0.0,63667,1,0.311246,-0.129287,-11.693281,0.015188,0.011458,-0.072478
1772551335.5570657,1,0.0,63667,2,1.23062,-0.746991,-11.382035,0.003997,0.020251,-0.052227
1772551335.562942,1,0.0,63667,3,-0.081403,0.167594,-11.511322,-0.033308,-0.034507,-0.014522
1772551335.5681055,1,0.0,63667,4,0.555455,0.0,-11.57836,-0.052893,0.009859,-0.006395
1772551335.574097,1,0.0,63696,1,-0.02873,0.124498,-11.085154,0.053026,0.003064,-0.037838
1772551335.579257,1,0.0,63696,2,0.718261,-0.23942,-10.869676,-0.006262,0.011991,-0.025847
1772551335.5852163,1,0.0,63696,3,-0.536301,0.158017,-11.769896,-0.040902,-0.008793,-0.004796
1772551335.590387,1,0.0,63696,4,0.033519,0.201113,-11.228806,-0.016787,-0.005329,-0.006528
1772551335.5985677,1,0.0,63725,1,1.04866,0.339977,-11.650186,0.001332,-0.006662,-0.025447
1772551335.6056664,1,0.0,63725,2,1.292869,-0.004788,-11.348516,-0.024248,0.02225,-0.029844
1772551335.6110384,1,0.0,63725,3,-0.100556,-0.004788,-11.779472,-0.047297,0.003064,-0.019185
1772551335.6178725,1,0.0,63725,4,-0.574608,0.454898,-11.51611,-0.016121,-0.018919,-0.003331
1772551335.6286666,1,0.0,63754,1,1.460463,0.378284,-11.903971,-0.015188,-0.011458,-0.031176
1772551335.6339903,1,0.0,63754,2,1.628057,-0.143652,-11.530476,-0.016121,0.01359,-0.03424
1772551335.639875,1,0.0,63754,3,0.162806,-0.062249,-11.765107,-0.045165,-0.014522,-0.019718
1772551335.6464818,1,0.0,63754,4,-0.248997,0.368707,-11.880029,-0.046897,-0.007727,-0.011058
1772551335.6571093,1,0.0,63783,1,1.043872,0.287304,-11.654974,-0.000133,-0.018119,-0.028112
1772551335.6626015,1,0.0,63783,2,1.235408,-0.167594,-11.267113,-0.012391,0.002798,-0.029178
1772551335.668254,1,0.0,63783,3,-0.258574,-0.09098,-11.583148,-0.052093,-0.021184,-0.013989
1772551335.6749916,1,0.0,63783,4,0.258574,0.3304,-11.674128,-0.040902,0.007328,-0.018253
1772551335.6856792,1,0.0,63812,1,0.794875,0.23942,-11.573571,-0.000933,-0.014922,-0.038904
1772551335.6926024,1,0.0,63812,2,1.086968,-0.248997,-11.27669,-0.01319,-0.007194,-0.037571
1772551335.6995597,1,0.0,63812,3,-0.320823,0.038307,-11.812991,-0.031576,-0.010925,-0.019319
1772551335.7097454,1,0.0,63812,4,0.392649,0.282516,-11.616667,-0.030643,0.009593,-0.002132
1772551335.7160609,1,0.0,63841,1,0.699107,0.201113,-11.587936,0.015055,-0.026247,-0.03504
1772551335.7219787,1,0.0,63841,2,0.957681,-0.201113,-11.123461,-0.020651,0.00493,-0.034507
1772551335.7273223,1,0.0,63841,3,-0.435745,-0.086191,-11.745954,-0.03957,-0.007861,-0.018652
1772551335.7335165,1,0.0,63841,4,0.153229,0.296881,-11.48738,-0.031176,-0.009593,-0.002798
1772551335.7441232,1,0.0,63870,1,0.924162,0.363919,-11.453861,0.001998,-0.004796,-0.045432
1772551335.7497764,1,0.0,63870,2,1.053449,-0.153229,-11.252748,-0.015055,-0.001732,-0.049029
1772551335.755266,1,0.0,63870,3,-0.268151,0.019154,-11.793838,-0.046364,0.004796,-0.033041
1772551335.7621615,1,0.0,63870,4,-0.004788,0.220267,-11.57836,-0.024781,-0.005862,-0.001332
1772551335.772792,1,0.0,63899,1,0.957681,0.411803,-11.7268,-0.010126,-0.005729,-0.037438
1772551335.77826,1,0.0,63899,2,1.249773,0.004788,-11.291056,-0.027312,0.01692,-0.039836
1772551335.7851477,1,0.0,63899,3,-0.095768,0.023942,-11.645397,-0.054625,-0.002931,-0.02598
1772551335.7905707,1,0.0,63899,4,-0.373495,0.311246,-11.645397,-0.005329,0.0004,0.001865
1772551335.8026056,1,0.0,63928,1,0.895431,0.138864,-11.420342,-0.001066,0.02558,-0.037571
1772551335.8081355,1,0.0,63928,2,1.355118,-0.435745,-11.439496,-0.008527,0.016521,-0.033308
1772551335.8137515,1,0.0,63928,3,0.004788,-0.019154,-11.894394,-0.062752,-0.010925,-0.010658
1772551335.8206544,1,0.0,63928,4,-0.258574,0.373495,-11.583148,-0.040103,-0.011591,-0.013323
1772551335.8312435,1,0.0,63957,1,0.847547,0.3304,-11.654974,0.008127,-0.008926,-0.024248
1772551335.8367755,1,0.0,63957,2,1.187524,-0.129287,-11.027693,-0.021983,0.029044,-0.025847
1772551335.842275,1,0.0,63957,3,0.114922,-0.153229,-11.597513,-0.03504,0.010259,-0.011991
1772551335.849038,1,0.0,63957,4,1.73819,0.363919,-11.731588,-0.033574,0.026113,-0.010658
1772551335.859866,1,0.0,63986,1,1.173159,0.023942,-11.061212,0.038371,-0.009859,-0.031709
1772551335.865501,1,0.0,63986,2,1.460463,-0.378284,-11.013328,-0.006528,-0.008127,-0.026513
1772551335.872341,1,0.0,63986,3,0.038307,-0.019154,-11.93749,-0.044766,-0.033175,-0.00826
1772551335.8779504,1,0.0,63986,4,0.866701,0.306458,-11.305421,-0.025314,-0.007461,-0.001466
1772551335.8949432,1,0.0,64015,1,2.432509,0.565032,-11.587936,-0.024781,-0.001998,-0.037838
1772551335.9001777,1,0.0,64015,2,2.245761,-0.071826,-11.372458,-0.011591,-0.011724,-0.047564
1772551335.9062302,1,0.0,64015,3,0.78051,-0.038307,-11.870452,-0.022916,0.01279,-0.036106
1772551335.9112346,1,0.0,64015,4,1.608904,0.229843,-11.932701,-0.026513,0.024115,0.001599
1772551335.9183545,1,0.0,64044,1,0.316035,0.258574,-11.133038,0.035706,-0.044499,-0.037971
1772551335.9239318,1,0.0,64044,2,0.158017,-0.095768,-11.003751,-0.021717,-0.027312,-0.043966
1772551335.929592,1,0.0,64044,3,-1.23062,0.043096,-11.765107,-0.007994,-0.037971,-0.031309
1772551335.9361722,1,0.0,64044,4,0.454898,0.368707,-11.549629,-0.015055,0.042234,0.007061
1772551335.9469745,1,0.0,64073,1,1.848324,0.248997,-11.415554,0.008127,-0.012524,-0.038504
1772551335.9525747,1,0.0,64073,2,1.604115,-0.244209,-11.137826,-0.016254,-0.011458,-0.045832
1772551335.9582152,1,0.0,64073,3,0.009577,-0.172383,-11.573571,-0.05276,-0.031709,-0.033441
1772551335.965069,1,0.0,64073,4,-0.579397,0.445322,-11.99495,-0.035839,-0.001199,-0.000266
1772551335.9755232,1,0.0,64102,1,1.594538,0.263362,-11.449073,0.002265,0.013723,-0.031709
1772551335.9823363,1,0.0,64102,2,1.752556,-0.244209,-11.262324,-0.013456,0.018386,-0.034773
1772551335.9878902,1,0.0,64102,3,0.368707,-0.201113,-11.549629,-0.048896,-0.010925,-0.022516
1772551335.9935422,1,0.0,64102,4,-0.459687,0.335188,-11.851298,-0.030643,-0.016254,-0.005462
1772551336.0054235,1,0.0,64131,1,0.933739,0.296881,-11.492168,0.000133,0.009992,-0.029577
1772551336.01093,1,0.0,64131,2,1.206678,-0.196325,-11.267113,-0.017986,0.025714,-0.031975
1772551336.016549,1,0.0,64131,3,-0.019154,-0.086191,-11.645397,-0.050095,0.000933,-0.015988
1772551336.0234082,1,0.0,64131,4,-0.129287,0.320823,-11.664551,-0.024781,-0.017453,-0.008127
1772551336.0363348,1,0.0,64160,1,0.612916,0.258574,-11.535264,-0.003597,-0.001865,-0.031842
1772551336.0459628,1,0.0,64160,2,0.90022,-0.172383,-11.334151,-0.01319,0.012257,-0.033974
1772551336.0568118,1,0.0,64160,3,-0.392649,-0.057461,-11.7268,-0.046631,0.000533,-0.019851
1772551336.067199,1,0.0,64160,4,-0.047884,0.354342,-11.540052,-0.026913,-0.005995,-0.006129
1772551336.0772028,1,0.0,64189,1,0.656011,0.311246,-11.602302,0.003997,-0.009459,-0.034107
1772551336.0897293,1,0.0,64189,2,0.852336,-0.162806,-11.319786,-0.009193,0.007994,-0.034773
1772551336.1031587,1,0.0,64189,3,-0.488417,-0.047884,-11.736377,-0.037438,-0.005862,-0.02185
1772551336.1105418,1,0.0,64189,4,-0.148441,0.368707,-11.559206,-0.030243,-0.002798,-0.003464
1772551336.1154757,1,0.0,64218,1,0.857124,0.387861,-11.573571,0.000933,-0.007061,-0.033175
1772551336.1204576,1,0.0,64218,2,1.01993,-0.105345,-11.358093,-0.00866,0.006262,-0.03464
1772551336.1255329,1,0.0,64218,3,-0.368707,0.014365,-11.741165,-0.037571,-0.006662,-0.021983
1772551336.1307812,1,0.0,64218,4,-0.258574,0.387861,-11.63582,-0.027446,-0.002798,-0.002132
1772551336.1356635,1,0.0,64247,1,1.039083,0.35913,-11.559206,0.000799,-0.004263,-0.030643
1772551336.1405866,1,0.0,64247,2,1.235408,-0.09098,-11.353305,-0.011591,0.010792,-0.033175
1772551336.1458533,1,0.0,64247,3,-0.143652,-0.009577,-11.712435,-0.041568,-0.006662,-0.018519
1772551336.1510262,1,0.0,64247,4,-0.172383,0.354342,-11.611878,-0.026913,-0.007461,-0.000933
1772551336.1560671,1,0.0,64276,1,1.067814,0.316035,-11.587936,0.000533,-0.003997,-0.029711
1772551336.1610508,1,0.0,64276,2,1.321599,-0.143652,-11.33894,-0.009459,0.011858,-0.030776
1772551336.1663096,1,0.0,64276,3,-0.043096,-0.047884,-11.722012,-0.042501,-0.00493,-0.017187
1772551336.1713998,1,0.0,64276,4,-0.023942,0.301669,-11.611878,-0.024781,-0.00866,-0.001332
1772551336.1785715,1,0.0,64305,1,1.067814,0.287304,-11.63582,-0.001066,-0.00413,-0.031176
1772551336.1853552,1,0.0,64305,2,1.316811,-0.172383,-11.314998,-0.011724,0.011591,-0.031443
1772551336.1909063,1,0.0,64305,3,0.0,-0.076614,-11.707646,-0.043567,-0.00373,-0.017986
1772551336.1977742,1,0.0,64305,4,0.043096,0.301669,-11.597513,-0.023582,-0.007727,-0.00493
1772551336.2084455,1,0.0,64334,1,1.077391,0.287304,-11.611878,-0.000133,-0.006662,-0.032508
1772551336.2139256,1,0.0,64334,2,1.302446,-0.215478,-11.310209,-0.012657,0.010525,-0.03464
1772551336.2195992,1,0.0,64334,3,-0.047884,-0.11971,-11.712435,-0.044499,-0.004663,-0.020518
1772551336.226426,1,0.0,64334,4,0.0,0.287304,-11.57836,-0.027046,-0.007461,-0.005729
1772551336.245221,1,0.0,64363,1,1.015141,0.272939,-11.554418,0.000533,-0.004663,-0.033574
1772551336.2510362,1,0.0,64363,2,1.235408,-0.205901,-11.314998,-0.012124,0.010525,-0.03544
1772551336.2568414,1,0.0,64363,3,-0.105345,-0.110133,-11.688493,-0.044766,-0.006928,-0.02185
1772551336.262023,1,0.0,64363,4,-0.071826,0.301669,-11.654974,-0.026913,-0.006795,-0.005596
1772551336.2670412,1,0.0,64392,1,0.948104,0.282516,-11.573571,-0.000799,-0.005196,-0.032908
1772551336.2724514,1,0.0,64392,2,1.158794,-0.177171,-11.310209,-0.014256,0.009859,-0.036106
1772551336.2781534,1,0.0,64392,3,-0.215478,-0.071826,-11.693281,-0.046364,-0.007328,-0.02145
1772551336.2850165,1,0.0,64392,4,-0.181959,0.35913,-11.631032,-0.027179,-0.006928,-0.004663
1772551336.2955258,1,0.0,64421,1,0.881066,0.292093,-11.587936,-0.000133,-0.005329,-0.033175
1772551336.301074,1,0.0,64421,2,1.096544,-0.158017,-11.319786,-0.012524,0.010525,-0.03464
1772551336.3067575,1,0.0,64421,3,-0.253785,-0.019154,-11.69807,-0.045032,-0.006528,-0.020384
1772551336.3136437,1,0.0,64421,4,-0.225055,0.397437,-11.626244,-0.028112,-0.006928,-0.004663
1772551336.3240862,1,0.0,64450,1,0.823605,0.35913,-11.568783,0.0004,-0.004663,-0.032508
1772551336.329678,1,0.0,64450,2,1.077391,-0.095768,-11.353305,-0.012257,0.011458,-0.033308
1772551336.3353157,1,0.0,64450,3,-0.292093,-0.009577,-11.650186,-0.043966,-0.006662,-0.019851
1772551336.342216,1,0.0,64450,4,-0.244209,0.383072,-11.602302,-0.026513,-0.006662,-0.003597
1772551336.352714,1,0.0,64479,1,0.871489,0.3304,-11.57836,0.000266,-0.00453,-0.031576
1772551336.3582687,1,0.0,64479,2,1.106121,-0.138864,-11.319786,-0.013057,0.011325,-0.033574
1772551336.3651717,1,0.0,64479,3,-0.258574,-0.014365,-11.659762,-0.0441,-0.005329,-0.018786
1772551336.3707879,1,0.0,64479,4,-0.158017,0.363919,-11.621455,-0.025047,-0.006662,-0.002398
1772551336.3826745,1,0.0,64508,1,0.92895,0.320823,-11.554418,0.000666,-0.003464,-0.031043
1772551336.3936331,1,0.0,64508,2,1.149217,-0.153229,-11.295844,-0.012923,0.012257,-0.032908
1772551336.4209588,1,0.0,64508,3,-0.177171,-0.057461,-11.717223,-0.044632,-0.005729,-0.018786
1772551336.426277,1,0.0,64508,4,-0.124498,0.3304,-11.640609,-0.027046,-0.005196,-0.001998
1772551336.4351804,1,0.0,64537,1,1.015141,0.282516,-11.559206,0.000266,-0.003997,-0.030776
1772551336.4405496,1,0.0,64537,2,1.249773,-0.21069,-11.295844,-0.011724,0.011325,-0.031842
1772551336.4458015,1,0.0,64537,3,-0.11971,-0.09098,-11.7268,-0.044233,-0.006129,-0.01772
1772551336.4509134,1,0.0,64537,4,-0.038307,0.296881,-11.602302,-0.025714,-0.006528,-0.002132
1772551336.4557836,1,0.0,64566,1,1.04866,0.263362,-11.549629,0.001066,-0.002931,-0.030776
1772551336.4607124,1,0.0,64566,2,1.264138,-0.181959,-11.305421,-0.012524,0.011325,-0.033041
1772551336.4659486,1,0.0,64566,3,-0.076614,-0.105345,-11.707646,-0.043833,-0.005329,-0.019585
1772551336.4710898,1,0.0,64566,4,0.004788,0.287304,-11.597513,-0.02638,-0.006528,-0.00373
1772551336.4761913,1,0.0,64595,1,1.077391,0.277727,-11.554418,-0.0004,-0.00413,-0.031709
1772551336.481137,1,0.0,64595,2,1.292869,-0.191536,-11.310209,-0.01279,0.010392,-0.033441
1772551336.4863214,1,0.0,64595,3,-0.071826,-0.095768,-11.69807,-0.044766,-0.005729,-0.020251
1772551336.4914913,1,0.0,64595,4,-0.043096,0.311246,-11.616667,-0.02638,-0.007061,-0.00373
1772551336.4984124,1,0.0,64624,1,1.015141,0.296881,-11.57836,-0.000933,-0.004796,-0.033308
1772551336.5039456,1,0.0,64624,2,1.216254,-0.177171,-11.300632,-0.01359,0.011191,-0.035839
1772551336.5096478,1,0.0,64624,3,-0.124498,-0.062249,-11.702858,-0.046231,-0.007461,-0.021051
1772551336.5164938,1,0.0,64624,4,-0.100556,0.344765,-11.640609,-0.026779,-0.005729,-0.005729
1772551336.5270503,1,0.0,64653,1,0.943315,0.3304,-11.563994,-0.000666,-0.00413,-0.033841
1772551336.5325763,1,0.0,64653,2,1.158794,-0.167594,-11.310209,-0.012257,0.010925,-0.035573
1772551336.5386417,1,0.0,64653,3,-0.186748,-0.033519,-11.683704,-0.045698,-0.006662,-0.021717
1772551336.545393,1,0.0,64653,4,-0.177171,0.349553,-11.592725,-0.027046,-0.006395,-0.004796
1772551336.5557315,1,0.0,64682,1,0.890643,0.335188,-11.573571,0.0,-0.005196,-0.033175
1772551336.5613105,1,0.0,64682,2,1.120486,-0.134075,-11.329363,-0.012391,0.011458,-0.034374
1772551336.5682032,1,0.0,64682,3,-0.229843,-0.009577,-11.678916,-0.045165,-0.006262,-0.019985
1772551336.5750573,1,0.0,64682,4,-0.201113,0.363919,-11.592725,-0.026513,-0.007727,-0.004397
1772551336.5856135,1,0.0,64711,1,0.866701,0.344765,-11.57836,0.0004,-0.00493,-0.031842
1772551336.5911477,1,0.0,64711,2,1.077391,-0.124498,-11.300632,-0.011191,0.010925,-0.033708
1772551336.5968173,1,0.0,64711,3,-0.268151,-0.033519,-11.702858,-0.044899,-0.005196,-0.019585
1772551336.6037068,1,0.0,64711,4,-0.21069,0.344765,-11.60709,-0.026513,-0.006395,-0.003064
1772551336.6142223,1,0.0,64740,1,0.876278,0.316035,-11.597513,0.0004,-0.003464,-0.03051
1772551336.6197553,1,0.0,64740,2,1.11091,-0.143652,-11.300632,-0.012257,0.011325,-0.033041
1772551336.625472,1,0.0,64740,3,-0.229843,-0.052672,-11.674128,-0.045299,-0.005862,-0.018786
1772551336.6322954,1,0.0,64740,4,-0.138864,0.344765,-11.631032,-0.02638,-0.005995,-0.002531
1772551336.6428344,1,0.0,64769,1,0.938527,0.311246,-11.563994,0.000933,-0.004796,-0.031443
1772551336.6484027,1,0.0,64769,2,1.16837,-0.162806,-11.334151,-0.011458,0.011591,-0.032642
1772551336.6553273,1,0.0,64769,3,-0.186748,-0.081403,-11.683704,-0.044766,-0.005596,-0.018519
1772551336.6609154,1,0.0,64769,4,-0.086191,0.325611,-11.611878,-0.027179,-0.006528,-0.002931
1772551336.6714656,1,0.0,64798,1,0.995988,0.282516,-11.57836,0.000133,-0.004663,-0.031576
1772551336.6782525,1,0.0,64798,2,1.23062,-0.181959,-11.314998,-0.012124,0.012923,-0.032642
1772551336.6839237,1,0.0,64798,3,-0.114922,-0.086191,-11.7268,-0.043567,-0.00453,-0.019052
1772551336.6908884,1,0.0,64798,4,-0.067038,0.306458,-11.621455,-0.02598,-0.006662,-0.004397
1772551336.7028632,1,0.0,64827,1,1.043872,0.287304,-11.587936,-0.000666,-0.005063,-0.030776
1772551336.713131,1,0.0,64827,2,1.278504,-0.196325,-11.324574,-0.012657,0.011991,-0.033974
1772551336.7186513,1,0.0,64827,3,-0.095768,-0.09098,-11.722012,-0.043966,-0.004263,-0.019319
1772551336.7250948,1,0.0,64827,4,-0.038307,0.306458,-11.63582,-0.026113,-0.007328,-0.002931
1772551336.730336,1,0.0,64856,1,1.063026,0.306458,-11.568783,0.0004,-0.006395,-0.031576
1772551336.7355282,1,0.0,64856,2,1.264138,-0.186748,-11.33894,-0.011858,0.010525,-0.034907
1772551336.7411947,1,0.0,64856,3,-0.095768,-0.071826,-11.717223,-0.044233,-0.005995,-0.019718
1772551336.7480514,1,0.0,64856,4,-0.057461,0.325611,-11.60709,-0.027046,-0.006662,-0.00413
1772551336.7586877,1,0.0,64885,1,1.010353,0.335188,-11.568783,-0.000799,-0.005995,-0.032642
1772551336.7654908,1,0.0,64885,2,1.23062,-0.148441,-11.305421,-0.013323,0.009726,-0.03424
1772551336.7711413,1,0.0,64885,3,-0.143652,-0.02873,-11.717223,-0.044632,-0.005196,-0.019851
1772551336.7780175,1,0.0,64885,4,-0.114922,0.339977,-11.621455,-0.026247,-0.00493,-0.006129
1772551336.7885613,1,0.0,64914,1,0.92895,0.301669,-11.563994,-0.0004,-0.004397,-0.033441
1772551336.7940714,1,0.0,64914,2,1.177947,-0.167594,-11.353305,-0.012124,0.010126,-0.03544
1772551336.7997296,1,0.0,64914,3,-0.186748,-0.038307,-11.69807,-0.045432,-0.006928,-0.020917
1772551336.8066344,1,0.0,64914,4,-0.172383,0.344765,-11.602302,-0.027446,-0.006395,-0.00493
1772551336.8170938,1,0.0,64943,1,0.895431,0.344765,-11.583148,0.0004,-0.006662,-0.032508
1772551336.8226383,1,0.0,64943,2,1.115698,-0.143652,-11.291056,-0.012657,0.010259,-0.034107
1772551336.8283234,1,0.0,64943,3,-0.244209,-0.043096,-11.654974,-0.044899,-0.005729,-0.020118
1772551336.835216,1,0.0,64943,4,-0.191536,0.354342,-11.602302,-0.026247,-0.006129,-0.00413
1772551336.8457325,1,0.0,64972,1,0.871489,0.311246,-11.559206,0.000133,-0.004263,-0.031443
1772551336.851265,1,0.0,64972,2,1.101333,-0.158017,-11.305421,-0.01319,0.011724,-0.034507
1772551336.8582063,1,0.0,64972,3,-0.248997,-0.038307,-11.659762,-0.045832,-0.006395,-0.018652
1772551336.864011,1,0.0,64972,4,-0.186748,0.349553,-11.63582,-0.026113,-0.006129,-0.002665
1772551336.8756478,1,0.0,65001,1,0.909797,0.287304,-11.563994,0.000933,-0.003064,-0.031576
1772551336.8812072,1,0.0,65001,2,1.125275,-0.167594,-11.314998,-0.012124,0.010525,-0.032508
1772551336.8869941,1,0.0,65001,3,-0.220267,-0.076614,-11.654974,-0.044766,-0.005862,-0.018119
1772551336.8990362,1,0.0,65001,4,-0.138864,0.3304,-11.626244,-0.027179,-0.005995,-0.003864
1772551336.9043553,1,0.0,65030,1,0.952892,0.306458,-11.592725,-0.000266,-0.005729,-0.031309
1772551336.9104366,1,0.0,65030,2,1.197101,-0.196325,-11.310209,-0.011991,0.012257,-0.032908
1772551336.916149,1,0.0,65030,3,-0.162806,-0.071826,-11.669339,-0.044233,-0.005596,-0.018652
1772551336.9224148,1,0.0,65030,4,-0.09098,0.320823,-11.621455,-0.02598,-0.005462,-0.003464
1772551336.9328494,1,0.0,65059,1,0.986411,0.320823,-11.530476,0.0,-0.003997,-0.03091
1772551336.9383817,1,0.0,65059,2,1.23062,-0.196325,-11.343728,-0.011591,0.011058,-0.033441
1772551336.9454012,1,0.0,65059,3,-0.138864,-0.047884,-11.688493,-0.043433,-0.00493,-0.020251
1772551336.9509332,1,0.0,65059,4,-0.057461,0.325611,-11.57836,-0.027046,-0.005995,-0.004397
1772551336.9614897,1,0.0,65088,1,1.039083,0.320823,-11.559206,0.000533,-0.00373,-0.032242
1772551336.9682722,1,0.0,65088,2,1.235408,-0.191536,-11.329363,-0.012124,0.011458,-0.033974
1772551336.973941,1,0.0,65088,3,-0.124498,-0.052672,-11.669339,-0.044899,-0.005329,-0.019851
1772551336.9807785,1,0.0,65088,4,-0.038307,0.335188,-11.621455,-0.026646,-0.006662,-0.004263
1772551336.9913814,1,0.0,65117,1,1.015141,0.306458,-11.573571,0.000266,-0.00453,-0.032508
1772551336.9968724,1,0.0,65117,2,1.235408,-0.162806,-11.319786,-0.013057,0.011325,-0.033175
1772551337.0025816,1,0.0,65117,3,-0.11971,-0.071826,-11.722012,-0.0433,-0.006129,-0.019452
1772551337.0094752,1,0.0,65117,4,-0.076614,0.320823,-11.626244,-0.025714,-0.006262,-0.00453
1772551337.020042,1,0.0,65146,1,0.981623,0.316035,-11.57836,-0.000666,-0.005196,-0.032642
1772551337.0255985,1,0.0,65146,2,1.225831,-0.153229,-11.348516,-0.011858,0.011458,-0.034507
1772551337.031255,1,0.0,65146,3,-0.143652,-0.047884,-11.693281,-0.0441,-0.00493,-0.020784
1772551337.0381505,1,0.0,65146,4,-0.110133,0.354342,-11.611878,-0.025847,-0.007061,-0.00453
1772551337.0486538,1,0.0,65175,1,0.933739,0.296881,-11.568783,-0.000266,-0.006395,-0.032375
1772551337.0554686,1,0.0,65175,2,1.149217,-0.153229,-11.329363,-0.01319,0.010658,-0.03464
1772551337.0611162,1,0.0,65175,3,-0.186748,-0.052672,-11.688493,-0.045032,-0.005729,-0.020118
1772551337.067963,1,0.0,65175,4,-0.172383,0.344765,-11.621455,-0.026247,-0.005862,-0.004263
1772551337.0784717,1,0.0,65204,1,0.905008,0.320823,-11.573571,0.0,-0.004263,-0.032642
1772551337.084013,1,0.0,65204,2,1.130063,-0.158017,-11.358093,-0.011991,0.011325,-0.034107
1772551337.0896962,1,0.0,65204,3,-0.234632,-0.052672,-11.650186,-0.044899,-0.005729,-0.019718
1772551337.0965374,1,0.0,65204,4,-0.191536,0.344765,-11.602302,-0.026646,-0.007194,-0.005329
1772551337.1071398,1,0.0,65233,1,0.909797,0.296881,-11.563994,0.000533,-0.00493,-0.032109
1772551337.112646,1,0.0,65233,2,1.134852,-0.167594,-11.300632,-0.012524,0.011991,-0.033708
1772551337.1182842,1,0.0,65233,3,-0.23942,-0.043096,-11.683704,-0.045832,-0.005596,-0.018652
1772551337.1251411,1,0.0,65233,4,-0.162806,0.349553,-11.621455,-0.02638,-0.007061,-0.003864
1772551337.1357048,1,0.0,65262,1,0.919373,0.292093,-11.57836,0.000266,-0.003597,-0.031576
1772551337.1413863,1,0.0,65262,2,1.154005,-0.167594,-11.310209,-0.012524,0.012124,-0.032508
1772551337.1481578,1,0.0,65262,3,-0.186748,-0.047884,-11.688493,-0.044499,-0.005995,-0.019319
1772551337.1538312,1,0.0,65262,4,-0.143652,0.339977,-11.626244,-0.026113,-0.006395,-0.003064
1772551337.165593,1,0.0,65291,1,0.957681,0.306458,-11.559206,0.0,-0.00413,-0.030643
1772551337.1712122,1,0.0,65291,2,1.197101,-0.177171,-11.319786,-0.012391,0.010925,-0.033175
1772551337.17681,1,0.0,65291,3,-0.153229,-0.076614,-11.69807,-0.044233,-0.005995,-0.018119
1772551337.1836445,1,0.0,65291,4,-0.081403,0.339977,-11.60709,-0.026646,-0.006262,-0.003864
1772551337.195932,1,0.0,65320,1,0.995988,0.296881,-11.573571,0.000666,-0.00493,-0.03091
1772551337.2069182,1,0.0,65320,2,1.221043,-0.162806,-11.305421,-0.012524,0.012391,-0.033041
1772551337.2121487,1,0.0,65320,3,-0.138864,-0.086191,-11.702858,-0.045165,-0.006262,-0.018519
1772551337.2185357,1,0.0,65320,4,-0.067038,0.325611,-11.611878,-0.026513,-0.007594,-0.002265
1772551337.2238216,1,0.0,65349,1,1.005565,0.301669,-11.559206,-0.000266,-0.004397,-0.031309
1772551337.2288694,1,0.0,65349,2,1.240196,-0.158017,-11.314998,-0.012657,0.011325,-0.034907
1772551337.2345243,1,0.0,65349,3,-0.129287,-0.09098,-11.707646,-0.044233,-0.005729,-0.019452
1772551337.2414443,1,0.0,65349,4,-0.057461,0.311246,-11.60709,-0.026513,-0.007194,-0.002798
1772551337.251843,1,0.0,65378,1,0.995988,0.296881,-11.573571,0.000133,-0.005329,-0.032109
1772551337.2574172,1,0.0,65378,2,1.244985,-0.177171,-11.291056,-0.012124,0.010525,-0.03424
1772551337.264305,1,0.0,65378,3,-0.11971,-0.081403,-11.683704,-0.045965,-0.006395,-0.019452
1772551337.2699578,1,0.0,65378,4,-0.076614,0.320823,-11.626244,-0.026113,-0.007861,-0.004397
1772551337.2804852,1,0.0,65407,1,0.962469,0.301669,-11.559206,0.0,-0.00453,-0.032109
1772551337.2872589,1,0.0,65407,2,1.187524,-0.177171,-11.314998,-0.012391,0.010392,-0.034107
1772551337.293022,1,0.0,65407,3,-0.177171,-0.067038,-11.707646,-0.046098,-0.005862,-0.020384
1772551337.2997768,1,0.0,65407,4,-0.124498,0.320823,-11.650186,-0.027179,-0.005462,-0.003464
1772551337.3103347,1,0.0,65436,1,0.933739,0.301669,-11.563994,0.0004,-0.00453,-0.033041
1772551337.3158634,1,0.0,65436,2,1.154005,-0.158017,-11.314998,-0.011458,0.010126,-0.033708
1772551337.3215652,1,0.0,65436,3,-0.220267,-0.081403,-11.712435,-0.044233,-0.005596,-0.020518
1772551337.3284204,1,0.0,65436,4,-0.153229,0.354342,-11.611878,-0.026646,-0.006395,-0.003331
1772551337.338967,1,0.0,65465,1,0.890643,0.335188,-11.554418,0.000666,-0.00373,-0.032109
1772551337.3444896,1,0.0,65465,2,1.120486,-0.191536,-11.319786,-0.011858,0.011325,-0.034107
1772551337.3502526,1,0.0,65465,3,-0.220267,-0.062249,-11.674128,-0.045565,-0.006395,-0.019985
1772551337.357042,1,0.0,65465,4,-0.167594,0.339977,-11.616667,-0.026113,-0.006795,-0.003331
1772551337.367681,1,0.0,65494,1,0.914585,0.316035,-11.583148,-0.000133,-0.003464,-0.031975
1772551337.374475,1,0.0,65494,2,1.13964,-0.177171,-11.329363,-0.01279,0.011325,-0.032775
1772551337.3802288,1,0.0,65494,3,-0.21069,-0.062249,-11.69807,-0.044632,-0.005729,-0.019452
1772551337.3870893,1,0.0,65494,4,-0.148441,0.363919,-11.626244,-0.025714,-0.005196,-0.003464
1772551337.4160144,1,0.0,65523,1,0.948104,0.325611,-11.563994,0.000533,-0.00413,-0.031176
1772551337.4215648,1,0.0,65523,2,1.173159,-0.177171,-11.33894,-0.011858,0.012124,-0.033441
1772551337.4277916,1,0.0,65523,3,-0.196325,-0.038307,-11.678916,-0.044366,-0.005596,-0.019718
1772551337.433016,1,0.0,65523,4,-0.114922,0.354342,-11.583148,-0.027312,-0.006662,-0.003464
1772551337.4381015,1,0.0,65552,1,0.962469,0.296881,-11.57836,0.001199,-0.00453,-0.031576
1772551337.4432817,1,0.0,65552,2,1.206678,-0.158017,-11.329363,-0.011991,0.010658,-0.033441
1772551337.4484608,1,0.0,65552,3,-0.172383,-0.062249,-11.69807,-0.045165,-0.005462,-0.018786
1772551337.453564,1,0.0,65552,4,-0.081403,0.311246,-11.60709,-0.027179,-0.006528,-0.002531
1772551337.4587655,1,0.0,65581,1,1.005565,0.325611,-11.559206,0.000266,-0.004397,-0.031309
1772551337.4637773,1,0.0,65581,2,1.235408,-0.177171,-11.33894,-0.012391,0.011325,-0.033574
1772551337.4690716,1,0.0,65581,3,-0.129287,-0.062249,-11.693281,-0.043567,-0.005862,-0.019718
1772551337.4742901,1,0.0,65581,4,-0.076614,0.325611,-11.631032,-0.026113,-0.006262,-0.003997
1772551337.484584,1,0.0,65610,1,1.010353,0.301669,-11.583148,0.0004,-0.004397,-0.032508
1772551337.490128,1,0.0,65610,2,1.211466,-0.191536,-11.291056,-0.012657,0.010925,-0.033441
1772551337.4957933,1,0.0,65610,3,-0.124498,-0.057461,-11.669339,-0.046631,-0.007194,-0.018786
1772551337.5026782,1,0.0,65610,4,-0.095768,0.311246,-11.626244,-0.025714,-0.006928,-0.00493
1772551337.5132225,1,0.0,65639,1,0.981623,0.301669,-11.568783,0.0,-0.005596,-0.031975
1772551337.518737,1,0.0,65639,2,1.197101,-0.172383,-11.319786,-0.013323,0.011858,-0.033708
1772551337.5244124,1,0.0,65639,3,-0.148441,-0.076614,-11.688493,-0.045165,-0.004796,-0.019585
1772551337.5312915,1,0.0,65639,4,-0.114922,0.320823,-11.626244,-0.026113,-0.006262,-0.00493
1772551337.542014,1,0.0,65668,1,0.972046,0.292093,-11.592725,0.0004,-0.005596,-0.032908
1772551337.547408,1,0.0,65668,2,1.177947,-0.177171,-11.295844,-0.012257,0.010658,-0.033974
1772551337.554332,1,0.0,65668,3,-0.162806,-0.067038,-11.707646,-0.045565,-0.006395,-0.019718
1772551337.5599275,1,0.0,65668,4,-0.143652,0.363919,-11.597513,-0.027046,-0.007194,-0.00453
1772551337.5705724,1,0.0,65697,1,0.914585,0.316035,-11.602302,-0.000266,-0.005063,-0.032375
1772551337.5773876,1,0.0,65697,2,1.173159,-0.162806,-11.319786,-0.013323,0.010259,-0.03504
1772551337.5830262,1,0.0,65697,3,-0.191536,-0.057461,-11.688493,-0.045032,-0.006129,-0.020251
1772551337.58994,1,0.0,65697,4,-0.148441,0.349553,-11.602302,-0.026113,-0.006662,-0.004397
1772551337.6004007,1,0.0,65726,1,0.92895,0.311246,-11.549629,-0.000933,-0.004263,-0.033041
1772551337.6059363,1,0.0,65726,2,1.149217,-0.158017,-11.286267,-0.012524,0.010925,-0.034374
1772551337.6116025,1,0.0,65726,3,-0.196325,-0.047884,-11.669339,-0.044366,-0.005995,-0.020651
1772551337.6185198,1,0.0,65726,4,-0.158017,0.349553,-11.60709,-0.026646,-0.006395,-0.004263
1772551337.6289787,1,0.0,65755,1,0.924162,0.311246,-11.544841,0.000666,-0.005462,-0.031309
1772551337.6344993,1,0.0,65755,2,1.144428,-0.153229,-11.310209,-0.012257,0.011591,-0.033974
1772551337.6401744,1,0.0,65755,3,-0.191536,-0.052672,-11.69807,-0.043966,-0.006262,-0.019052
1772551337.6470442,1,0.0,65755,4,-0.138864,0.344765,-11.573571,-0.02598,-0.006129,-0.003864
1772551337.6576054,1,0.0,65784,1,0.948104,0.325611,-11.573571,0.000666,-0.00413,-0.031176
1772551337.6643653,1,0.0,65784,2,1.177947,-0.167594,-11.324574,-0.012524,0.011325,-0.033175
1772551337.67007,1,0.0,65784,3,-0.177171,-0.062249,-11.688493,-0.045165,-0.004796,-0.019452
1772551337.6769183,1,0.0,65784,4,-0.086191,0.3304,-11.611878,-0.026247,-0.006129,-0.00373
1772551337.68792,1,0.0,65813,1,0.981623,0.292093,-11.554418,0.000533,-0.004663,-0.031576
1772551337.693592,1,0.0,65813,2,1.197101,-0.162806,-11.33894,-0.012124,0.012657,-0.032908
1772551337.7059057,1,0.0,65813,3,-0.153229,-0.062249,-11.683704,-0.0441,-0.005995,-0.019452
1772551337.7112863,1,0.0,65813,4,-0.081403,0.3304,-11.597513,-0.026913,-0.006129,-0.002931
1772551337.717541,1,0.0,65842,1,0.986411,0.320823,-11.587936,0.000666,-0.004796,-0.031842
1772551337.7228239,1,0.0,65842,2,1.221043,-0.167594,-11.324574,-0.011591,0.011191,-0.033441
1772551337.7280688,1,0.0,65842,3,-0.134075,-0.062249,-11.693281,-0.044766,-0.005596,-0.019052
1772551337.734251,1,0.0,65842,4,-0.095768,0.3304,-11.650186,-0.02598,-0.005995,-0.003864
1772551337.7448363,1,0.0,65871,1,0.986411,0.306458,-11.563994,-0.000266,-0.003997,-0.032642
1772551337.750758,1,0.0,65871,2,1.216254,-0.186748,-11.291056,-0.013323,0.011991,-0.033574
1772551337.7573717,1,0.0,65871,3,-0.143652,-0.062249,-11.678916,-0.044632,-0.006528,-0.019985
1772551337.7641246,1,0.0,65871,4,-0.110133,0.325611,-11.631032,-0.02558,-0.005462,-0.003864
1772551337.774606,1,0.0,65900,1,0.981623,0.306458,-11.583148,0.000666,-0.003864,-0.032508
1772551337.7801726,1,0.0,65900,2,1.206678,-0.201113,-11.362882,-0.009859,0.010392,-0.033974
1772551337.7858586,1,0.0,65900,3,-0.143652,-0.071826,-11.69807,-0.044233,-0.005462,-0.018786
1772551337.792662,1,0.0,65900,4,-0.071826,0.301669,-11.57836,-0.024248,-0.007461,-0.00453
1772551337.8033319,1,0.0,65929,1,0.976834,0.292093,-11.75553,-0.004397,-0.005063,-0.031043
1772551337.80883,1,0.0,65929,2,1.130063,-0.162806,-11.449073,-0.011724,0.00493,-0.034507
1772551337.8145266,1,0.0,65929,3,-0.129287,-0.081403,-11.650186,-0.044366,-0.006928,-0.018786
1772551337.8213189,1,0.0,65929,4,-0.225055,0.387861,-11.300632,-0.019851,0.051694,-0.003198
1772551337.8317804,1,0.0,65958,1,0.751779,0.383072,-11.544841,0.041568,0.041835,-0.031176
1772551337.8373048,1,0.0,65958,2,1.211466,-0.225055,-11.583148,0.000799,0.031842,-0.032109
1772551337.8440075,1,0.0,65958,3,0.014365,-0.138864,-11.496957,-0.040636,0.036772,-0.02225
1772551337.8495877,1,0.0,65958,4,-0.272939,0.411803,-11.061212,0.022383,-0.000266,-0.00413
1772551337.8604052,1,0.0,65987,1,0.890643,0.349553,-11.592725,0.00453,0.018119,-0.034374
1772551337.867184,1,0.0,65987,2,1.149217,-0.114922,-11.358093,-0.005729,0.033308,-0.034773
1772551337.8727734,1,0.0,65987,3,-0.105345,-0.038307,-11.63582,-0.041568,0.012524,-0.020251
1772551337.8797185,1,0.0,65987,4,-0.110133,0.363919,-11.611878,-0.011858,-0.009992,-0.003464
1772551337.898715,1,0.0,66016,1,1.043872,0.296881,-11.688493,-0.01732,-0.006528,-0.032642
1772551337.9047852,1,0.0,66016,2,1.201889,-0.181959,-11.420342,0.0004,-0.007328,-0.033974
1772551337.9104092,1,0.0,66016,3,-0.258574,-0.052672,-11.736377,-0.049562,-0.008527,-0.019585
1772551337.9155817,1,0.0,66016,4,-0.148441,0.296881,-11.563994,-0.03011,-0.005729,-0.003864
1772551337.920552,1,0.0,66045,1,0.948104,0.339977,-11.602302,0.01319,-0.014123,-0.032109
1772551337.9256318,1,0.0,66045,2,1.254562,-0.124498,-11.209652,-0.025714,0.014789,-0.033308
1772551337.9307702,1,0.0,66045,3,-0.162806,-0.043096,-11.712435,-0.048629,-0.01692,-0.01732
1772551337.9370112,1,0.0,66045,4,-0.153229,0.316035,-11.549629,-0.022516,-0.032242,-0.00413
1772551337.9479375,1,0.0,66074,1,1.04866,0.301669,-11.563994,-0.019985,-0.025314,-0.031576
1772551337.9544504,1,0.0,66074,2,1.158794,-0.057461,-11.195287,-0.018119,0.007194,-0.034374
1772551337.9601421,1,0.0,66074,3,-0.205901,-0.071826,-11.722012,-0.054758,-0.016121,-0.019185
1772551337.9668262,1,0.0,66074,4,0.191536,0.220267,-11.722012,-0.040902,0.006795,-0.002798
1772551337.9775295,1,0.0,66103,1,1.125275,0.363919,-11.712435,0.003597,-0.045965,-0.031443
1772551337.9829888,1,0.0,66103,2,1.010353,-0.100556,-10.903194,-0.035706,0.030643,-0.037438
1772551337.988677,1,0.0,66103,3,-0.052672,-0.215478,-11.559206,-0.045299,-0.068348,-0.015721
1772551337.9954476,1,0.0,66103,4,0.019154,0.253785,-11.712435,-0.034107,0.05689,-0.001466
1772551338.0060985,1,0.0,66132,1,0.976834,0.335188,-11.678916,0.027179,-0.011591,-0.031309
1772551338.0115998,1,0.0,66132,2,1.101333,-0.272939,-11.109096,-0.030776,0.024115,-0.03464
1772551338.0173154,1,0.0,66132,3,-0.02873,-0.205901,-11.520899,-0.037172,-0.026913,-0.018253
1772551338.024193,1,0.0,66132,4,-0.229843,0.416591,-11.683704,-0.025181,-0.003198,-0.005995
1772551338.034668,1,0.0,66161,1,0.885855,0.296881,-11.377247,0.013456,0.003198,-0.029711
1772551338.0403159,1,0.0,66161,2,1.182736,-0.21069,-11.305421,-0.011191,0.020917,-0.033175
1772551338.047079,1,0.0,66161,3,-0.124498,-0.071826,-11.645397,-0.041168,0.006795,-0.019185
1772551338.0526397,1,0.0,66161,4,-0.153229,0.383072,-11.592725,-0.01319,-0.015721,-0.007461
1772551338.0646229,1,0.0,66190,1,0.92895,0.277727,-11.631032,-0.009726,0.003997,-0.031309
1772551338.0701556,1,0.0,66190,2,1.173159,-0.167594,-11.429919,-0.007328,0.002531,-0.032908
1772551338.0757084,1,0.0,66190,3,-0.220267,-0.047884,-11.616667,-0.048763,0.005995,-0.019319
1772551338.0825188,1,0.0,66190,4,-0.086191,0.301669,-11.659762,-0.026646,0.000666,-0.005196
1772551338.0933087,1,0.0,66219,1,1.01993,0.306458,-11.573571,0.003997,-0.041035,-0.031309
1772551338.0988092,1,0.0,66219,2,1.086968,-0.038307,-10.898406,-0.038504,0.023182,-0.035972
1772551338.1044133,1,0.0,66219,3,-0.248997,-0.071826,-11.640609,-0.046231,-0.049562,-0.017453
1772551338.1135633,1,0.0,66219,4,0.114922,0.201113,-11.956643,-0.052493,-0.018652,-0.004263
1772551338.1261797,1,0.0,66248,1,1.115698,0.354342,-11.573571,-0.014922,-0.066749,-0.032775
1772551338.138015,1,0.0,66248,2,1.039083,-0.033519,-10.879252,-0.033974,0.009859,-0.037305
1772551338.147491,1,0.0,66248,3,-0.191536,-0.110133,-11.760319,-0.042634,-0.072211,-0.015721
1772551338.161156,1,0.0,66248,4,0.100556,0.21069,-11.789049,-0.052493,0.040369,-0.001066
1772551338.1722343,1,0.0,66277,1,0.967257,0.378284,-11.769896,0.009859,-0.023449,-0.031176
1772551338.1778717,1,0.0,66277,2,1.015141,-0.186748,-11.166556,-0.025047,0.019585,-0.033708
1772551338.1833599,1,0.0,66277,3,-0.038307,-0.234632,-11.559206,-0.037305,-0.029577,-0.018919
1772551338.1890025,1,0.0,66277,4,-0.186748,0.392649,-11.559206,-0.021184,0.02598,-0.003331
1772551338.20165,1,0.0,66306,1,0.90022,0.277727,-11.501745,0.015988,0.001732,-0.03051
1772551338.206753,1,0.0,66306,2,1.154005,-0.234632,-11.382035,-0.01359,0.022383,-0.032908
1772551338.2128391,1,0.0,66306,3,-0.110133,-0.076614,-11.688493,-0.031842,0.005329,-0.019585
1772551338.2182796,1,0.0,66306,4,-0.181959,0.387861,-11.540052,-0.016787,-0.00866,-0.004263
1772551338.2234893,1,0.0,66335,1,0.967257,0.268151,-11.549629,-0.002665,-0.003331,-0.031842
1772551338.2287688,1,0.0,66335,2,1.254562,-0.186748,-11.382035,-0.003331,0.003464,-0.032508
1772551338.2344923,1,0.0,66335,3,-0.191536,-0.004788,-11.669339,-0.046897,0.003464,-0.018652
1772551338.2396538,1,0.0,66335,4,-0.014365,0.272939,-11.659762,-0.029977,-0.019718,-0.004796
1772551338.244886,1,0.0,66364,1,1.063026,0.248997,-11.611878,-0.017054,-0.007727,-0.031043
1772551338.2499774,1,0.0,66364,2,1.221043,-0.172383,-11.238382,-0.015055,-0.01279,-0.03504
1772551338.2551467,1,0.0,66364,3,-0.263362,-0.009577,-11.616667,-0.063018,-0.016121,-0.017187
1772551338.2602472,1,0.0,66364,4,-0.320823,0.454898,-11.870452,-0.039303,-0.028112,-0.006662
1772551338.2674744,1,0.0,66393,1,0.861913,0.205901,-11.348516,-0.011591,0.018786,-0.032375
1772551338.2730567,1,0.0,66393,2,1.388637,-0.225055,-11.391612,-0.003331,-0.01279,-0.033441
1772551338.278591,1,0.0,66393,3,-0.502782,0.057461,-11.822568,-0.071545,0.027979,-0.023315
1772551338.2854054,1,0.0,66393,4,0.004788,0.339977,-11.84651,-0.049962,-0.047297,-0.004796
1772551338.2961032,1,0.0,66422,1,0.92895,0.316035,-11.506534,-0.010392,0.004663,-0.033574
1772551338.3016634,1,0.0,66422,2,1.149217,-0.100556,-11.281479,-0.016654,0.019985,-0.035839
1772551338.3072906,1,0.0,66422,3,-0.167594,-0.052672,-11.707646,-0.053292,-0.010658,-0.018253
1772551338.31421,1,0.0,66422,4,-0.02873,0.306458,-11.496957,-0.026779,-0.011724,-0.003198
1772551338.324998,1,0.0,66451,1,0.995988,0.335188,-11.75553,-0.010126,-0.016654,-0.031975
1772551338.3303607,1,0.0,66451,2,1.134852,-0.158017,-11.33894,-0.005063,0.005196,-0.034773
1772551338.3372383,1,0.0,66451,3,-0.196325,-0.076614,-11.669339,-0.043833,-0.014655,-0.019185
1772551338.3427649,1,0.0,66451,4,-0.148441,0.339977,-11.587936,-0.030243,0.017986,-0.003597
1772551338.3546207,1,0.0,66480,1,0.933739,0.349553,-11.63582,0.012391,-0.019718,-0.03051
1772551338.3601222,1,0.0,66480,2,1.201889,-0.167594,-11.137826,-0.025847,0.013989,-0.034507
1772551338.3658237,1,0.0,66480,3,-0.244209,-0.047884,-11.640609,-0.048763,-0.020118,-0.019452
1772551338.3735888,1,0.0,66480,4,-0.205901,0.42138,-11.84651,-0.034773,-0.02145,-0.004796
1772551338.383463,1,0.0,66509,1,0.92895,0.316035,-11.449073,-0.007328,-0.008793,-0.033175
1772551338.3888075,1,0.0,66509,2,1.216254,-0.124498,-11.171345,-0.018253,0.005462,-0.034773
1772551338.3945143,1,0.0,66509,3,-0.301669,-0.019154,-11.812991,-0.051294,-0.016521,-0.020917
1772551338.4013493,1,0.0,66509,4,0.225055,0.220267,-11.999739,-0.056224,-0.044632,-0.003198
1772551338.4393003,1,0.0,66538,1,1.211466,0.268151,-11.602302,-0.039436,-0.065683,-0.033441
1772551338.447203,1,0.0,66538,2,0.976834,-0.095768,-10.922348,-0.033308,0.02145,-0.036372
1772551338.4532363,1,0.0,66538,3,-0.100556,-0.110133,-11.587936,-0.052227,-0.072078,-0.013323
1772551338.4584944,1,0.0,66538,4,-0.110133,0.296881,-11.899182,-0.054225,0.024115,-0.002132
1772551338.4640985,1,0.0,66567,1,0.962469,0.296881,-11.530476,-0.007727,-0.013989,-0.032375
1772551338.469495,1,0.0,66567,2,1.201889,-0.229843,-11.33894,-0.00906,-0.010126,-0.032642
1772551338.4747493,1,0.0,66567,3,-0.287304,-0.038307,-11.784261,-0.039703,-0.011591,-0.019052
1772551338.4797933,1,0.0,66567,4,-0.110133,0.311246,-11.592725,-0.037704,-0.000266,-0.003198
1772551338.4847744,1,0.0,66596,1,0.885855,0.292093,-11.688493,0.010792,-0.006129,-0.032242
1772551338.489889,1,0.0,66596,2,1.197101,-0.153229,-11.27669,-0.023715,0.021717,-0.033574
1772551338.494993,1,0.0,66596,3,-0.143652,-0.033519,-11.631032,-0.0429,0.000933,-0.019052
1772551338.5002222,1,0.0,66596,4,-0.052672,0.320823,-11.563994,-0.022116,-0.017187,-0.003597
1772551338.5055118,1,0.0,66625,1,1.01993,0.339977,-11.511322,-0.007194,-0.001865,-0.029844
1772551338.510598,1,0.0,66625,2,1.13964,-0.153229,-11.348516,-0.002132,0.004663,-0.033041
1772551338.5163908,1,0.0,66625,3,-0.21069,-0.105345,-11.631032,-0.047031,0.002931,-0.018919
1772551338.5214367,1,0.0,66625,4,-0.095768,0.368707,-11.654974,-0.028778,0.027446,-0.003597
1772551338.527538,1,0.0,66654,1,0.876278,0.363919,-11.492168,0.024248,0.033974,-0.030643
1772551338.5368428,1,0.0,66654,2,1.149217,-0.277727,-11.473015,-0.003597,0.032775,-0.032242
1772551338.5425708,1,0.0,66654,3,0.057461,-0.215478,-11.477803,-0.0437,0.003331,-0.019851
1772551338.5476685,1,0.0,66654,4,-0.378284,0.488417,-11.305421,0.021583,0.011724,-0.003331
1772551338.5574954,1,0.0,66683,1,0.790087,0.21069,-11.463438,0.0004,0.046764,-0.031043
1772551338.5628715,1,0.0,66683,2,1.288081,-0.335188,-11.602302,0.005729,0.009859,-0.030643
1772551338.5684597,1,0.0,66683,3,-0.172383,-0.095768,-11.626244,-0.043567,0.050228,-0.022649
1772551338.575256,1,0.0,66683,4,-0.23942,0.440533,-11.544841,0.002798,-0.009992,-0.005729
1772551338.5860887,1,0.0,66712,1,0.938527,0.234632,-11.415554,-0.003064,0.00906,-0.031309
1772551338.5916297,1,0.0,66712,2,1.16837,-0.162806,-11.319786,-0.011191,0.021317,-0.03464
1772551338.5972269,1,0.0,66712,3,-0.186748,-0.033519,-11.563994,-0.051827,0.001332,-0.019319
1772551338.6043053,1,0.0,66712,4,-0.071826,0.368707,-11.769896,-0.021717,-0.00866,-0.004796
1772551338.614853,1,0.0,66741,1,0.972046,0.272939,-11.473015,-0.011191,-0.002265,-0.030243
1772551338.6203382,1,0.0,66741,2,1.16837,-0.186748,-11.262324,-0.008926,0.001199,-0.032642
1772551338.627228,1,0.0,66741,3,-0.282516,-0.086191,-11.693281,-0.04823,-0.007061,-0.018919
1772551338.6341302,1,0.0,66741,4,-0.105345,0.349553,-11.750742,-0.031576,-0.009726,-0.00413
1772551338.6446126,1,0.0,66770,1,0.90022,0.3304,-11.391612,0.00866,-0.001066,-0.031576
1772551338.6501343,1,0.0,66770,2,1.144428,-0.162806,-11.15698,-0.022783,0.023582,-0.03424
1772551338.6558106,1,0.0,66770,3,-0.191536,-0.11971,-11.669339,-0.040502,-0.012657,-0.020518
1772551338.66265,1,0.0,66770,4,0.09098,0.268151,-11.87524,-0.035306,-0.023182,-0.005329
1772551338.6733508,1,0.0,66799,1,1.106121,0.277727,-11.683704,-0.014389,-0.049562,-0.032775
1772551338.678822,1,0.0,66799,2,1.072602,-0.067038,-10.91756,-0.037038,0.007994,-0.035706
1772551338.6844738,1,0.0,66799,3,-0.244209,-0.038307,-11.75553,-0.038637,-0.060087,-0.016121
1772551338.6912875,1,0.0,66799,4,0.162806,0.181959,-12.229582,-0.088199,0.024648,-0.001599
1772551338.7072818,1,0.0,66828,1,1.058237,0.349553,-11.425131,0.028245,-0.051694,-0.031309
1772551338.7133515,1,0.0,66828,2,1.015141,-0.052672,-10.807426,-0.044632,0.029977,-0.03544
1772551338.718862,1,0.0,66828,3,-0.047884,-0.138864,-11.626244,-0.043966,-0.07874,-0.016787
1772551338.723905,1,0.0,66828,4,-0.067038,0.368707,-11.860875,-0.045832,0.007061,-0.002798
1772551338.7304647,1,0.0,66857,1,0.976834,0.311246,-11.549629,0.006662,-0.01359,-0.032508
1772551338.737244,1,0.0,66857,2,1.197101,-0.196325,-11.329363,-0.010925,0.007328,-0.033041
1772551338.7429392,1,0.0,66857,3,-0.129287,-0.071826,-11.84651,-0.036905,-0.007861,-0.019718
1772551338.7505398,1,0.0,66857,4,-0.09098,0.339977,-11.449073,-0.026247,-0.003464,-0.003331
1772551338.760393,1,0.0,66886,1,0.914585,0.301669,-11.722012,0.006262,-0.000666,-0.032375
1772551338.7658732,1,0.0,66886,2,1.144428,-0.201113,-11.415554,-0.008793,0.012524,-0.032775
1772551338.7714565,1,0.0,66886,3,-0.129287,-0.052672,-11.693281,-0.040236,0.004397,-0.019452
1772551338.7782917,1,0.0,66886,4,-0.138864,0.344765,-11.506534,-0.026113,0.003331,-0.005196
1772551338.788893,1,0.0,66915,1,0.957681,0.306458,-11.468226,0.003198,0.009326,-0.032508
1772551338.7944314,1,0.0,66915,2,1.182736,-0.181959,-11.386824,-0.005063,0.00906,-0.034374
1772551338.8000228,1,0.0,66915,3,-0.205901,-0.033519,-11.745954,-0.045032,0.00373,-0.022383
1772551338.806927,1,0.0,66915,4,-0.258574,0.430956,-11.659762,-0.023049,-0.024115,-0.003997
1772551338.8175187,1,0.0,66944,1,0.895431,0.373495,-11.314998,0.004263,0.033441,-0.031176
1772551338.8242571,1,0.0,66944,2,1.211466,-0.225055,-11.678916,0.01359,0.016254,-0.032242
1772551338.8298526,1,0.0,66944,3,-0.009577,-0.143652,-11.554418,-0.053026,0.03091,-0.022783
1772551338.8353102,1,0.0,66944,4,-0.416591,0.47884,-11.003751,0.042634,0.012124,-0.003597
1772551338.8473861,1,0.0,66973,1,0.766145,0.272939,-11.587936,0.007194,0.060753,-0.031709
1772551338.8528264,1,0.0,66973,2,1.302446,-0.296881,-11.664551,0.006262,0.024381,-0.031309
1772551338.8584428,1,0.0,66973,3,-0.134075,-0.033519,-11.659762,-0.031309,0.062086,-0.024781
1772551338.865334,1,0.0,66973,4,-0.114922,0.363919,-11.506534,-0.00493,-0.012657,-0.005995
1772551338.8761635,1,0.0,67002,1,0.952892,0.282516,-11.592725,-0.000133,0.00373,-0.031309
1772551338.881719,1,0.0,67002,2,1.130063,-0.191536,-11.36767,-0.005462,0.015855,-0.033574
1772551338.8873065,1,0.0,67002,3,-0.143652,-0.057461,-11.621455,-0.043833,-0.004397,-0.018786
1772551338.89631,1,0.0,67002,4,-0.181959,0.387861,-11.736377,-0.030776,-0.002665,-0.005462
1772551338.9070132,1,0.0,67031,1,0.938527,0.325611,-11.353305,0.009726,-0.011058,-0.03051
1772551338.9148436,1,0.0,67031,2,1.225831,-0.143652,-11.200075,-0.015455,0.015055,-0.032775
1772551338.9201338,1,0.0,67031,3,-0.205901,-0.067038,-11.750742,-0.047031,-0.020251,-0.018119
1772551338.9252474,1,0.0,67031,4,-0.067038,0.363919,-11.674128,-0.023715,-0.033974,-0.003464
1772551338.9345975,1,0.0,67060,1,0.919373,0.282516,-11.736377,-0.018519,0.009326,-0.032775
1772551338.9401755,1,0.0,67060,2,1.201889,-0.220267,-11.51611,-0.005862,-0.009459,-0.033974
1772551338.9464896,1,0.0,67060,3,-0.234632,-0.086191,-11.712435,-0.047697,0.005729,-0.021583
1772551338.952631,1,0.0,67060,4,-0.134075,0.339977,-11.549629,-0.024115,0.000799,-0.001066
1772551338.9632914,1,0.0,67089,1,1.043872,0.177171,-11.597513,-0.009859,-0.021583,-0.034374
1772551338.96888,1,0.0,67089,2,1.268927,-0.134075,-11.046846,-0.029577,-0.010658,-0.036639
1772551338.974507,1,0.0,67089,3,-0.402226,0.110133,-11.856087,-0.041568,-0.02558,-0.020651
1772551338.9812927,1,0.0,67089,4,0.023942,0.277727,-12.248735,-0.082337,-0.044233,-0.00373
1772551338.9919121,1,0.0,67118,1,1.115698,0.292093,-11.405977,-0.023982,-0.029577,-0.031975
1772551338.9975333,1,0.0,67118,2,1.23062,-0.114922,-11.200075,-0.016387,-0.009859,-0.035839
1772551339.0043805,1,0.0,67118,3,-0.205901,0.009577,-11.836933,-0.053692,-0.044632,-0.015855
1772551339.011201,1,0.0,67118,4,-0.186748,0.35913,-11.664551,-0.044233,-0.02598,-0.005063
1772551339.02053,1,0.0,67147,1,0.948104,0.339977,-11.520899,-0.002798,-0.012524,-0.032642
1772551339.027312,1,0.0,67147,2,1.268927,-0.153229,-11.353305,-0.014789,0.009326,-0.033974
1772551339.0329723,1,0.0,67147,3,-0.162806,-0.033519,-11.688493,-0.051028,-0.006528,-0.019319
1772551339.0399513,1,0.0,67147,4,-0.047884,0.306458,-11.429919,-0.019851,-0.017054,-0.003198
1772551339.0504246,1,0.0,67176,1,0.976834,0.287304,-11.803414,-0.012524,-0.000666,-0.031043
1772551339.055943,1,0.0,67176,2,1.115698,-0.21069,-11.334151,-0.01359,0.005729,-0.03504
1772551339.0615819,1,0.0,67176,3,-0.181959,-0.076614,-11.60709,-0.0437,0.005196,-0.019585
1772551339.0683594,1,0.0,67176,4,-0.153229,0.363919,-11.693281,-0.035839,0.022383,-0.001599
1772551339.0789537,1,0.0,67205,1,0.981623,0.277727,-11.358093,0.01319,-0.013723,-0.032775
1772551339.084533,1,0.0,67205,2,1.173159,-0.162806,-11.204864,-0.015988,0.022649,-0.035573
1772551339.0905697,1,0.0,67205,3,-0.134075,-0.143652,-11.717223,-0.026646,-0.029977,-0.02225
1772551339.097074,1,0.0,67205,4,-0.143652,0.373495,-11.741165,-0.03091,0.017453,-0.001466
1772551339.1075313,1,0.0,67234,1,0.828394,0.383072,-11.362882,0.031709,0.023848,-0.031176
1772551339.1143188,1,0.0,67234,2,1.13964,-0.234632,-11.468226,-0.002132,0.041168,-0.031309
1772551339.1198332,1,0.0,67234,3,0.033519,-0.158017,-11.717223,-0.016787,0.039303,-0.023582
1772551339.125402,1,0.0,67234,4,-0.296881,0.411803,-11.147403,0.015988,-0.000933,-0.003997
1772551339.1374323,1,0.0,67263,1,0.905008,0.344765,-11.583148,0.003864,0.015855,-0.03091
1772551339.1428683,1,0.0,67263,2,1.173159,-0.205901,-11.626244,0.008926,0.025181,-0.03011
1772551339.1484666,1,0.0,67263,3,-0.105345,-0.081403,-11.741165,-0.027179,0.045432,-0.023449
1772551339.1552396,1,0.0,67263,4,-0.162806,0.392649,-11.377247,-0.005462,0.000666,-0.004263
1772551339.166095,1,0.0,67292,1,1.024718,0.287304,-11.549629,0.006928,-0.000133,-0.030643
1772551339.1716125,1,0.0,67292,2,1.149217,-0.124498,-11.27669,-0.01359,0.017187,-0.03464
1772551339.178028,1,0.0,67292,3,-0.148441,-0.062249,-11.587936,-0.042767,-0.006795,-0.020251
1772551339.1842074,1,0.0,67292,4,-0.191536,0.378284,-11.688493,-0.018119,-0.005196,-0.004263
1772551339.1988149,1,0.0,67321,1,0.976834,0.263362,-11.405977,-0.005596,-0.012524,-0.032642
1772551339.2041385,1,0.0,67321,2,1.187524,-0.138864,-11.310209,-0.00826,0.006662,-0.034507
1772551339.2105265,1,0.0,67321,3,-0.191536,-0.043096,-11.774684,-0.048096,-0.004663,-0.020118
1772551339.2157786,1,0.0,67321,4,-0.086191,0.287304,-11.568783,-0.028378,-0.003064,-0.003331
1772551339.2246788,1,0.0,67350,1,0.967257,0.258574,-11.741165,-0.00866,-0.010525,-0.03504
1772551339.2306879,1,0.0,67350,2,1.244985,-0.09098,-11.243171,-0.023982,0.004397,-0.035706
1772551339.235826,1,0.0,67350,3,-0.263362,0.023942,-11.884817,-0.019851,-0.018652,-0.021583
1772551339.2426095,1,0.0,67350,4,0.067038,0.220267,-11.841722,-0.063951,-0.045832,-0.003597
1772551339.2533498,1,0.0,67379,1,1.077391,0.272939,-11.573571,-0.038637,-0.024781,-0.035306
1772551339.2588825,1,0.0,67379,2,1.244985,-0.081403,-11.353305,-0.006395,-0.03091,-0.03544
1772551339.2644758,1,0.0,67379,3,-0.363919,0.043096,-11.99495,-0.028378,-0.024115,-0.020251
1772551339.2713256,1,0.0,67379,4,0.105345,0.167594,-11.841722,-0.08207,-0.015455,-0.001998
1772551339.2818964,1,0.0,67408,1,1.058237,0.316035,-11.822568,-0.028245,-0.039703,-0.033974
1772551339.2875357,1,0.0,67408,2,1.163582,-0.100556,-11.291056,-0.025714,-0.003864,-0.035573
1772551339.294474,1,0.0,67408,3,-0.162806,-0.047884,-11.750742,-0.043433,-0.032642,-0.01692
1772551339.3013039,1,0.0,67408,4,-0.11971,0.244209,-11.496957,-0.041568,-0.010792,-0.003331
1772551339.3104537,1,0.0,67437,1,0.952892,0.373495,-11.631032,0.000133,-0.012657,-0.033841
1772551339.3172317,1,0.0,67437,2,1.149217,-0.110133,-11.233594,-0.01692,0.014389,-0.035173
1772551339.3233323,1,0.0,67437,3,-0.158017,-0.086191,-11.640609,-0.041035,-0.001466,-0.02225
1772551339.3298886,1,0.0,67437,4,-0.076614,0.316035,-11.587936,-0.024381,-0.005196,-0.001066
1772551339.3404064,1,0.0,67466,1,0.92895,0.354342,-11.616667,-0.002798,-0.003464,-0.032775
1772551339.345948,1,0.0,67466,2,1.154005,-0.205901,-11.305421,-0.01359,0.015188,-0.034773
1772551339.3516057,1,0.0,67466,3,-0.081403,-0.114922,-11.669339,-0.035573,-0.007461,-0.020784
1772551339.358451,1,0.0,67466,4,-0.153229,0.363919,-11.621455,-0.029711,0.006795,-0.003331
1772551339.3690448,1,0.0,67495,1,0.943315,0.272939,-11.741165,-0.000666,-0.000799,-0.032775
1772551339.3751523,1,0.0,67495,2,1.23062,-0.201113,-11.343728,-0.009193,-0.006262,-0.032908
1772551339.3806012,1,0.0,67495,3,-0.248997,-0.014365,-11.554418,-0.033574,0.018386,-0.019319
1772551339.4098868,1,0.0,67495,4,-0.253785,0.335188,-11.616667,-0.031176,0.007994,-0.004397
1772551339.4160151,1,0.0,67524,1,0.732626,0.383072,-11.391612,0.036772,0.038104,-0.031709
1772551339.4223235,1,0.0,67524,2,1.211466,-0.253785,-11.463438,-0.00453,0.031842,-0.03051
1772551339.4274175,1,0.0,67524,3,0.033519,-0.134075,-11.717223,-0.031975,0.038637,-0.021317
1772551339.43254,1,0.0,67524,4,-0.344765,0.426168,-11.104307,0.031043,-0.015988,-0.005862
1772551339.437321,1,0.0,67553,1,0.943315,0.3304,-11.597513,0.002132,0.006395,-0.031443
1772551339.4425032,1,0.0,67553,2,1.149217,-0.124498,-11.372458,-0.005063,0.027979,-0.032642
1772551339.4476786,1,0.0,67553,3,-0.138864,-0.09098,-11.798626,-0.036639,0.011591,-0.021717
1772551339.4526327,1,0.0,67553,4,-0.11971,0.397437,-11.482592,-0.014123,0.015188,-0.002132
1772551339.4577432,1,0.0,67582,1,1.010353,0.268151,-11.506534,-0.008127,0.014522,-0.032109
1772551339.4626892,1,0.0,67582,2,1.264138,-0.172383,-11.449073,0.001998,0.000666,-0.033708
1772551339.468651,1,0.0,67582,3,-0.148441,-0.095768,-11.75553,-0.054358,-0.001732,-0.019718
1772551339.4740617,1,0.0,67582,4,-0.143652,0.320823,-11.674128,-0.01732,0.001466,-0.00453
1772551339.4847076,1,0.0,67611,1,0.957681,0.306458,-11.530476,0.005196,-0.017054,-0.032508
1772551339.4902625,1,0.0,67611,2,1.23062,-0.162806,-11.252748,-0.019985,0.015721,-0.033574
1772551339.4971645,1,0.0,67611,3,-0.09098,-0.095768,-11.654974,-0.037971,-0.02598,-0.019452
1772551339.5040042,1,0.0,67611,4,-0.177171,0.363919,-11.674128,-0.037305,-0.05156,-0.00493
1772551339.51477,1,0.0,67640,1,0.991199,0.325611,-11.540052,-0.010792,0.005862,-0.032908
1772551339.5201454,1,0.0,67640,2,1.221043,-0.167594,-11.319786,0.00493,-0.004263,-0.031709
1772551339.5258725,1,0.0,67640,3,-0.062249,-0.153229,-11.789049,-0.029844,0.024914,-0.021983
1772551339.5326,1,0.0,67640,4,-0.09098,0.363919,-11.520899,-0.028778,-0.047031,-0.005063
1772551339.5434897,1,0.0,67669,1,1.11091,0.282516,-11.760319,-0.036239,-0.025447,-0.033974
1772551339.548894,1,0.0,67669,2,1.254562,-0.067038,-11.286267,-0.014256,-0.025714,-0.036505
1772551339.554492,1,0.0,67669,3,-0.469264,-0.019154,-11.659762,-0.029044,0.009326,-0.019718
1772551339.5613546,1,0.0,67669,4,0.071826,0.263362,-12.018892,-0.071145,-0.033308,-0.001865
1772551339.571912,1,0.0,67698,1,0.967257,0.378284,-11.659762,-0.019985,-0.007194,-0.033308
1772551339.5775464,1,0.0,67698,2,1.23062,-0.181959,-11.353305,-0.008527,-0.019851,-0.034507
1772551339.5843875,1,0.0,67698,3,-0.344765,-0.076614,-11.57836,-0.055025,0.001199,-0.019718
1772551339.5912013,1,0.0,67698,4,-0.143652,0.287304,-11.741165,-0.033708,-0.018386,-0.003997
1772551339.6004837,1,0.0,67727,1,0.909797,0.339977,-11.583148,0.006928,-0.008793,-0.033441
1772551339.607652,1,0.0,67727,2,1.130063,-0.110133,-11.137826,-0.036505,0.031576,-0.036239
1772551339.61292,1,0.0,67727,3,-0.110133,-0.105345,-11.745954,-0.041835,-0.005995,-0.021184
1772551339.619805,1,0.0,67727,4,-0.076614,0.363919,-11.712435,-0.032508,-0.030377,-0.003597
1772551339.6304057,1,0.0,67756,1,1.000776,0.320823,-11.611878,-0.018519,-0.002265,-0.032109
1772551339.6358457,1,0.0,67756,2,1.16837,-0.181959,-11.410766,0.001599,0.001732,-0.032508
1772551339.641596,1,0.0,67756,3,-0.143652,-0.100556,-11.678916,-0.039436,-0.007727,-0.020118
1772551339.6483006,1,0.0,67756,4,-0.134075,0.339977,-11.592725,-0.041701,0.021583,-0.005729
1772551339.659125,1,0.0,67785,1,0.981623,0.378284,-11.602302,0.017453,-0.025714,-0.03091
1772551339.6645224,1,0.0,67785,2,1.067814,-0.071826,-11.314998,-0.023582,0.018519,-0.033175
1772551339.6713026,1,0.0,67785,3,-0.095768,-0.162806,-11.683704,0.0004,0.008394,-0.020518
1772551339.67682,1,0.0,67785,4,-0.248997,0.363919,-11.190498,-0.019851,0.037838,-0.001199
1772551339.6875281,1,0.0,67814,1,0.866701,0.287304,-11.626244,0.035706,0.025047,-0.03091
1772551339.6943185,1,0.0,67814,2,1.134852,-0.220267,-11.415554,-0.00906,0.026247,-0.032242
1772551339.706457,1,0.0,67814,3,0.062249,-0.191536,-11.750742,0.005063,0.041968,-0.024781
1772551339.7115238,1,0.0,67814,4,-0.201113,0.349553,-11.238382,-0.006795,0.006928,-0.003331
1772551339.7174902,1,0.0,67843,1,0.885855,0.344765,-11.611878,0.03091,0.020917,-0.032642
1772551339.722935,1,0.0,67843,2,1.134852,-0.186748,-11.362882,-0.011991,0.041435,-0.034107
1772551339.7285714,1,0.0,67843,3,0.023942,-0.086191,-11.865664,-0.021051,-0.006262,-0.023582
1772551339.735418,1,0.0,67843,4,-0.105345,0.363919,-11.449073,-0.014522,-0.005596,-0.002531
1772551339.7460315,1,0.0,67872,1,0.90022,0.277727,-11.736377,0.00453,0.003464,-0.032242
1772551339.7517514,1,0.0,67872,2,1.216254,-0.248997,-11.463438,0.001998,-0.00373,-0.03424
1772551339.757315,1,0.0,67872,3,-0.076614,-0.09098,-11.592725,-0.049029,-0.023049,-0.020118
1772551339.7639928,1,0.0,67872,4,-0.196325,0.325611,-11.429919,-0.018386,0.005329,-0.006395
1772551339.77466,1,0.0,67901,1,0.957681,0.248997,-11.621455,0.009459,0.001199,-0.03091
1772551339.7801719,1,0.0,67901,2,1.254562,-0.162806,-11.281479,-0.013723,0.003198,-0.032775
1772551339.7870135,1,0.0,67901,3,-0.114922,-0.134075,-11.57836,-0.018786,0.035706,-0.019851
1772551339.7926183,1,0.0,67901,4,-0.02873,0.373495,-11.453861,-0.029844,-0.032508,-0.004663
1772551339.804737,1,0.0,67930,1,0.919373,0.3304,-11.640609,-0.030243,-0.041835,-0.033974
1772551339.8103335,1,0.0,67930,2,1.115698,-0.186748,-11.233594,-0.033441,-0.014922,-0.032908
1772551339.8158238,1,0.0,67930,3,-0.344765,-0.038307,-11.789049,0.101256,0.172401,-0.030776
1772551339.8225899,1,0.0,67930,4,0.105345,0.392649,-12.483368,-0.086734,-0.019985,-0.004796
1772551339.8333223,1,0.0,67959,1,1.01993,0.378284,-11.444284,-0.046631,-0.066882,-0.031975
1772551339.8388696,1,0.0,67959,2,1.034295,-0.186748,-11.305421,-0.017587,-0.014655,-0.031043
1772551339.8443341,1,0.0,67959,3,-0.354342,0.019154,-11.812991,0.061153,0.163741,-0.025714
1772551339.851155,1,0.0,67959,4,0.158017,0.483629,-12.033257,-0.094594,-0.024648,-0.002265
1772551339.8619082,1,0.0,67988,1,0.852336,0.306458,-11.525687,-0.036905,-0.051161,-0.037971
1772551339.8675184,1,0.0,67988,2,1.326388,-0.114922,-11.247959,-0.014522,-0.029977,-0.03544
1772551339.8744967,1,0.0,67988,3,-0.02873,-0.234632,-11.836933,-0.036639,-0.013723,-0.020917
1772551339.881358,1,0.0,67988,4,-0.004788,0.517148,-11.932701,-0.039836,-0.012657,-0.003331
1772551339.8950298,1,0.0,68017,1,0.976834,0.296881,-11.69807,-0.029178,-0.011591,-0.029977
1772551339.900314,1,0.0,68017,2,1.096544,-0.287304,-11.449073,-0.02225,0.02638,-0.03051
1772551339.9063811,1,0.0,68017,3,0.038307,-0.272939,-11.597513,-0.051028,0.015988,-0.013723
1772551339.9115894,1,0.0,68017,4,-0.162806,0.440533,-11.7268,-0.046764,0.011191,-0.005063
1772551339.9202912,1,0.0,68046,1,0.957681,0.296881,-11.319786,0.021983,0.025447,-0.027179
1772551339.925806,1,0.0,68046,2,1.11091,-0.100556,-11.358093,-0.017853,0.006928,-0.030377
1772551339.931313,1,0.0,68046,3,-0.067038,-0.316035,-11.343728,0.028645,0.074077,-0.024248
1772551339.9382775,1,0.0,68046,4,-0.100556,0.497994,-11.434708,-0.0429,-0.030643,-0.002665
1772551339.948939,1,0.0,68075,1,0.972046,0.47884,-11.899182,0.000799,0.010259,-0.037971
1772551339.9544492,1,0.0,68075,2,1.412579,-0.081403,-11.310209,0.014123,-0.019985,-0.02638
1772551339.9611595,1,0.0,68075,3,0.268151,-0.416591,-11.267113,0.133631,0.294441,-0.031443
1772551339.9667814,1,0.0,68075,4,-0.3304,0.172383,-10.903194,-0.048096,-0.002398,-0.001199
1772551339.9775114,1,0.0,68104,1,0.675165,0.124498,-11.75553,0.054758,0.031842,-0.037038
1772551339.9842203,1,0.0,68104,2,1.134852,0.086191,-10.984597,-0.048629,0.023848,-0.03091
1772551339.989772,1,0.0,68104,3,0.277727,-0.426168,-11.913548,0.061819,0.057689,-0.032775
1772551339.9952295,1,0.0,68104,4,-0.263362,0.191536,-11.142614,0.027312,-0.001199,-0.003331
1772551340.007402,1,0.0,68133,1,1.015141,0.339977,-11.860875,0.011191,0.033441,-0.024381
1772551340.0129113,1,0.0,68133,2,0.866701,-0.430956,-11.295844,-0.036505,0.053292,-0.031176
1772551340.0184376,1,0.0,68133,3,0.047884,-0.09098,-11.405977,-0.037838,0.002398,-0.020518
1772551340.025243,1,0.0,68133,4,-0.229843,0.378284,-11.645397,-0.031443,0.038637,-0.007061
1772551340.0361836,1,0.0,68162,1,0.952892,0.292093,-11.142614,0.031842,-0.001466,-0.03051
1772551340.0415545,1,0.0,68162,2,1.288081,0.0,-11.195287,0.011191,0.000666,-0.03091
1772551340.0470905,1,0.0,68162,3,0.100556,-0.397437,-12.009315,-0.044233,-0.031309,-0.017986
1772551340.053917,1,0.0,68162,4,-0.105345,0.339977,-11.563994,0.006129,-0.025181,-0.004397
1772551340.0647972,1,0.0,68191,1,0.823605,0.349553,-11.784261,-0.001066,-0.017853,-0.031975
1772551340.0715694,1,0.0,68191,2,0.986411,-0.244209,-11.161768,-0.029311,0.000266,-0.035706
1772551340.0770085,1,0.0,68191,3,0.138864,-0.42138,-11.401189,0.011058,0.077008,-0.030377
1772551340.08254,1,0.0,68191,4,-0.397437,0.344765,-12.009315,-0.053426,0.003597,-0.00826
1772551340.0946286,1,0.0,68220,1,0.799663,0.339977,-11.281479,0.015322,-0.005196,-0.03011
1772551340.1001182,1,0.0,68220,2,0.938527,-0.205901,-11.291056,-0.03051,0.008127,-0.031975
1772551340.1057088,1,0.0,68220,3,-0.081403,-0.177171,-12.239159,0.117243,0.209306,-0.03544
1772551340.112424,1,0.0,68220,4,0.004788,0.536301,-12.722788,-0.057956,-0.023982,-0.009459
1772551340.1232734,1,0.0,68249,1,1.005565,0.411803,-11.152191,-0.068881,-0.081404,-0.029178
1772551340.1288688,1,0.0,68249,2,1.091756,-0.320823,-11.3964,-0.025847,-0.008394,-0.035839
1772551340.1343575,1,0.0,68249,3,-0.02873,0.095768,-11.784261,0.053292,0.096459,-0.025714
1772551340.1410415,1,0.0,68249,4,0.086191,0.584185,-12.090718,-0.079139,0.008127,-0.005329
1772551340.1519055,1,0.0,68278,1,1.077391,0.42138,-11.420342,-0.055158,-0.027046,-0.03544
1772551340.1575284,1,0.0,68278,2,1.369483,-0.095768,-11.501745,-0.001066,-0.021184,-0.030377
1772551340.1643026,1,0.0,68278,3,0.009577,-0.526724,-11.832145,-0.051161,0.064884,-0.005462
1772551340.1699588,1,0.0,68278,4,-0.11971,0.387861,-11.765107,-0.003997,-0.018652,-0.002931
1772551340.186294,1,0.0,68307,1,0.938527,0.311246,-11.96622,0.010792,-0.019319,-0.027712
1772551340.2019749,1,0.0,68307,2,0.876278,-0.167594,-11.233594,-0.048763,0.047031,-0.037971
1772551340.211928,1,0.0,68307,3,0.196325,-0.335188,-11.482592,-0.03957,-0.019851,-0.023182
1772551340.2207112,1,0.0,68307,4,-0.033519,0.45011,-11.7268,-0.045165,-0.007461,-0.000133
1772551340.2303333,1,0.0,68336,1,0.938527,0.363919,-11.525687,-0.017853,0.01732,-0.034374
1772551340.2405193,1,0.0,68336,2,1.144428,-0.181959,-11.401189,0.004263,-0.013057,-0.032109
1772551340.2512038,1,0.0,68336,3,0.220267,-0.56982,-11.257536,0.027712,0.114179,-0.022516
1772551340.261846,1,0.0,68336,4,-0.095768,0.445322,-11.736377,-0.029844,-0.018119,-0.00373
1772551340.2690158,1,0.0,68365,1,0.828394,0.220267,-11.549629,-0.001332,-0.050628,-0.032109
1772551340.2741327,1,0.0,68365,2,1.163582,-0.248997,-11.147403,-0.029711,-0.016654,-0.030643
1772551340.279028,1,0.0,68365,3,0.205901,-0.177171,-12.29662,0.141358,0.181594,-0.031709
1772551340.284003,1,0.0,68365,4,0.081403,0.454898,-12.339716,-0.046631,-0.019585,-0.007994
1772551340.2890189,1,0.0,68394,1,0.995988,0.440533,-11.33894,-0.048496,-0.061153,-0.033574
1772551340.2940867,1,0.0,68394,2,1.335965,0.129287,-11.741165,-0.003864,-0.064351,-0.029711
1772551340.2991889,1,0.0,68394,3,0.42138,0.110133,-12.492945,0.063152,0.076342,-0.011591
1772551340.3041568,1,0.0,68394,4,0.023942,0.536301,-12.152967,-0.051028,0.045032,-0.016787
1772551340.3091967,1,0.0,68423,1,1.01993,0.397437,-11.190498,-0.03544,-0.034107,-0.027712
1772551340.3141632,1,0.0,68423,2,1.077391,-0.043096,-11.520899,-0.033974,0.002798,-0.032109
1772551340.3191612,1,0.0,68423,3,0.153229,-0.435745,-11.611878,-0.038637,0.019319,-0.010925
1772551340.324081,1,0.0,68423,4,-0.138864,0.349553,-11.923124,-0.000533,0.015988,-0.005596
1772551340.3291357,1,0.0,68452,1,0.957681,0.354342,-11.501745,0.008527,-0.011724,-0.029977
1772551340.335515,1,0.0,68452,2,1.058237,-0.114922,-11.209652,-0.031309,0.028911,-0.037438
1772551340.3407161,1,0.0,68452,3,0.42138,-0.35913,-11.683704,-0.040636,-0.043433,-0.022383
1772551340.3458962,1,0.0,68452,4,-0.114922,0.555455,-11.669339,-0.032109,-0.007194,-0.00413
1772551340.354701,1,0.0,68481,1,0.90022,0.301669,-11.425131,-0.004796,0.016787,-0.033574
1772551340.361596,1,0.0,68481,2,1.13964,-0.105345,-11.348516,-0.019319,-0.004263,-0.035573
1772551340.3670795,1,0.0,68481,3,0.268151,-0.502782,-11.372458,-0.005862,0.003064,-0.02225
1772551340.3726351,1,0.0,68481,4,-0.162806,0.42138,-11.63582,-0.037838,0.00413,-0.005196
1772551340.3845334,1,0.0,68510,1,0.837971,0.316035,-11.683704,0.040502,0.001066,-0.033574
1772551340.3915863,1,0.0,68510,2,1.125275,-0.11971,-11.247959,-0.012923,0.011991,-0.035173
1772551340.4133956,1,0.0,68510,3,0.497994,-0.593762,-11.535264,0.086067,0.070346,-0.026513
1772551340.4340887,1,0.0,68510,4,-0.148441,0.220267,-10.759542,-0.064884,0.077407,-0.004263
1772551340.4398403,1,0.0,68539,1,0.986411,0.521936,-11.650186,0.010792,-0.024115,-0.032775
1772551340.44666,1,0.0,68539,2,1.431733,-0.253785,-11.281479,-0.011591,-0.00493,-0.020251
1772551340.4517186,1,0.0,68539,3,0.608127,-0.497994,-11.841722,0.076874,0.207841,-0.002398
1772551340.4566398,1,0.0,68539,4,-0.306458,0.095768,-11.190498,-0.015055,0.066882,-0.009193
1772551340.4617023,1,0.0,68568,1,0.967257,0.047884,-11.602302,0.024781,0.011724,-0.013856
1772551340.46687,1,0.0,68568,2,1.029507,-0.114922,-11.224017,-0.041968,0.057023,-0.019585
1772551340.4720445,1,0.0,68568,3,0.550666,-0.694318,-11.554418,-0.011991,0.049562,-0.014123
1772551340.476943,1,0.0,68568,4,-0.349553,0.407014,-11.410766,0.008394,0.005196,-0.013057
1772551340.4827945,1,0.0,68597,1,0.871489,0.383072,-11.669339,0.014389,0.003464,-0.027712
1772551340.488028,1,0.0,68597,2,1.235408,-0.023942,-11.238382,-0.001998,-0.005862,-0.030643
1772551340.4933078,1,0.0,68597,3,0.521936,-0.550666,-11.769896,-0.033974,-0.034374,-0.019319
1772551340.4983208,1,0.0,68597,4,-0.335188,0.363919,-11.554418,0.001599,-0.024914,-0.007461
1772551340.503441,1,0.0,68626,1,1.072602,0.392649,-11.631032,-0.001998,-0.004796,-0.027046
1772551340.5084498,1,0.0,68626,2,1.264138,-0.057461,-11.305421,-0.007861,0.00413,-0.028778
1772551340.5136259,1,0.0,68626,3,0.392649,-0.679953,-11.511322,-0.026913,0.045832,-0.016521
1772551340.518719,1,0.0,68626,4,-0.253785,0.407014,-11.880029,-0.049962,-0.027979,-0.005596
1772551340.5289552,1,0.0,68655,1,1.249773,0.454898,-11.559206,-0.039303,0.021051,-0.023049
1772551340.5354106,1,0.0,68655,2,1.383849,-0.100556,-11.36767,-0.019319,-0.023049,-0.021583
1772551340.5415468,1,0.0,68655,3,0.277727,-0.727837,-11.324574,0.057023,0.162675,-0.018519
1772551340.546821,1,0.0,68655,4,-0.593762,0.397437,-12.215217,-0.046231,0.024248,-0.002931
1772551340.5576584,1,0.0,68684,1,0.871489,0.445322,-11.554418,0.038504,-0.009726,-0.032908
1772551340.5643804,1,0.0,68684,2,1.101333,-0.153229,-11.415554,-0.030776,0.037438,-0.03504
1772551340.5699036,1,0.0,68684,3,0.746991,-0.751779,-11.425131,0.046764,0.166273,-0.021983
1772551340.5753493,1,0.0,68684,4,-0.454898,0.368707,-11.631032,0.00413,-0.07421,-0.003464
1772551340.587471,1,0.0,68713,1,0.718261,0.244209,-11.51611,-0.019185,0.024115,-0.035706
1772551340.5930088,1,0.0,68713,2,1.134852,-0.100556,-11.449073,-0.010925,0.00866,-0.033974
1772551340.5986073,1,0.0,68713,3,0.512359,-0.761356,-11.626244,-0.023182,-0.00866,-0.011325
1772551340.6054285,1,0.0,68713,4,0.153229,0.727837,-11.444284,-0.032109,-0.030643,-0.001599
1772551340.6160884,1,0.0,68742,1,0.785298,0.306458,-11.57836,-0.025847,0.015455,-0.03424
1772551340.6216598,1,0.0,68742,2,1.005565,-0.234632,-11.3964,0.012657,-0.020651,-0.031176
1772551340.627591,1,0.0,68742,3,0.363919,-0.761356,-11.75553,-0.033041,0.017187,-0.016521
1772551340.6341338,1,0.0,68742,4,-0.153229,0.339977,-11.645397,-0.038371,-0.006262,-0.005729
1772551340.6447275,1,0.0,68771,1,0.895431,0.407014,-11.563994,0.022783,-0.025314,-0.029178
1772551340.6515286,1,0.0,68771,2,0.981623,-0.076614,-11.21444,-0.019452,0.024248,-0.033041
1772551340.6570024,1,0.0,68771,3,0.35913,-0.718261,-11.334151,-0.010792,0.015721,-0.022116
1772551340.6626532,1,0.0,68771,4,-0.181959,0.339977,-11.899182,-0.045299,-0.032908,-0.003597
1772551340.674669,1,0.0,68800,1,0.952892,0.407014,-11.45865,-0.016654,-0.000799,-0.03504
1772551340.680696,1,0.0,68800,2,1.134852,-0.009577,-11.520899,-0.014389,-0.007461,-0.034773
1772551340.6857562,1,0.0,68800,3,0.646434,-0.679953,-11.774684,0.023049,0.073277,-0.014922
1772551340.6926239,1,0.0,68800,4,-0.177171,0.392649,-11.923124,-0.014655,-0.071145,-0.005196
1772551340.7084472,1,0.0,68829,1,0.881066,0.253785,-11.889606,-0.043034,-0.006129,-0.034773
1772551340.7138681,1,0.0,68829,2,0.981623,-0.138864,-11.09473,-0.009726,-0.03011,-0.03424
1772551340.7198124,1,0.0,68829,3,0.177171,-0.670376,-11.717223,-0.021317,-0.013323,-0.028245
1772551340.725007,1,0.0,68829,4,0.043096,0.426168,-11.870452,-0.068214,-0.013989,-0.001732
1772551340.7317982,1,0.0,68858,1,0.756568,0.397437,-11.621455,0.009726,0.001865,-0.031975
1772551340.7374592,1,0.0,68858,2,1.024718,-0.21069,-11.219229,-0.016521,-0.025047,-0.035306
1772551340.7442212,1,0.0,68858,3,0.464475,-0.828394,-11.789049,-0.054092,-0.026913,-0.027179
1772551340.7498007,1,0.0,68858,4,-0.124498,0.526724,-11.889606,-0.03011,-0.02558,0.0
1772551340.7604713,1,0.0,68887,1,0.842759,0.335188,-11.563994,0.020384,-0.010792,-0.034907
1772551340.7676826,1,0.0,68887,2,1.058237,-0.100556,-11.123461,-0.021583,0.005862,-0.036772
1772551340.772766,1,0.0,68887,3,0.560243,-0.699107,-11.654974,-0.035972,0.008527,-0.021983
1772551340.779697,1,0.0,68887,4,-0.100556,0.483629,-11.60709,-0.038237,-0.014789,-0.00453
1772551340.810821,1,0.0,68916,1,0.952892,0.392649,-11.425131,-0.014655,0.001998,-0.031709
1772551340.8184328,1,0.0,68916,2,1.197101,-0.09098,-11.415554,0.001466,0.005596,-0.032908
1772551340.8245864,1,0.0,68916,3,0.545878,-0.593762,-11.57836,-0.017587,0.002665,-0.020651
1772551340.8300834,1,0.0,68916,4,-0.138864,0.45011,-11.654974,-0.039303,-0.019718,-0.005462
1772551340.835284,1,0.0,68945,1,1.034295,0.344765,-11.951855,-0.012923,-0.029977,-0.032908
1772551340.8404322,1,0.0,68945,2,1.221043,-0.196325,-11.63582,-0.015988,-0.007328,-0.034374
1772551340.845426,1,0.0,68945,3,0.56982,-0.718261,-11.851298,-0.014389,0.03051,-0.017853
1772551340.8504972,1,0.0,68945,4,-0.129287,0.536301,-11.252748,-0.00413,0.080072,-0.006528
1772551340.8554978,1,0.0,68974,1,0.699107,0.191536,-11.544841,0.023848,-0.005196,-0.027712
1772551340.860501,1,0.0,68974,2,1.034295,-0.316035,-11.238382,-0.019985,0.054225,-0.032642
1772551340.8657467,1,0.0,68974,3,0.866701,-0.981623,-11.631032,-0.064617,-0.033574,-0.010925
1772551340.8708575,1,0.0,68974,4,-0.272939,0.545878,-11.219229,-0.003464,-0.001599,-0.005329
1772551340.877464,1,0.0,69003,1,0.746991,0.316035,-11.372458,0.023049,0.030243,-0.035173
1772551340.8898456,1,0.0,69003,2,1.120486,-0.114922,-11.291056,-0.011058,0.020784,-0.034773
1772551340.8951404,1,0.0,69003,3,0.646434,-0.646434,-11.702858,-0.041968,-0.007861,-0.008527
1772551340.9010475,1,0.0,69003,4,0.004788,0.387861,-11.444284,-0.018786,-0.018919,-0.003997
1772551340.906424,1,0.0,69032,1,0.78051,0.234632,-11.683704,-0.012391,0.006928,-0.033308
1772551340.9124608,1,0.0,69032,2,1.11091,-0.234632,-11.429919,-0.009193,0.00493,-0.029444
1772551340.917853,1,0.0,69032,3,0.603339,-0.675165,-11.688493,-0.046631,-0.008394,-0.01319
1772551340.924005,1,0.0,69032,4,-0.138864,0.497994,-11.57836,-0.010392,0.003864,-0.008926
1772551340.934709,1,0.0,69061,1,0.78051,0.378284,-11.741165,0.011191,-0.004796,-0.028911
1772551340.9415507,1,0.0,69061,2,1.053449,-0.124498,-11.343728,-0.016121,0.001865,-0.029711
1772551340.9470375,1,0.0,69061,3,0.430956,-0.723049,-11.310209,-0.008127,0.039836,-0.015855
1772551340.9526377,1,0.0,69061,4,-0.023942,0.411803,-11.669339,-0.059155,-0.044233,-0.006528
1772551340.9647622,1,0.0,69090,1,0.943315,0.287304,-11.7268,-0.036639,-0.023582,-0.03504
1772551340.9702876,1,0.0,69090,2,1.192312,-0.095768,-11.066,-0.012923,-0.039303,-0.032908
1772551340.9757202,1,0.0,69090,3,0.287304,-0.679953,-11.243171,0.124172,0.20944,-0.031043
1772551340.9825985,1,0.0,69090,4,-0.134075,0.488417,-12.306197,-0.088066,-0.065949,-0.00453
1772551340.9932206,1,0.0,69119,1,0.876278,0.497994,-11.530476,0.004263,-0.013856,-0.034773
1772551340.9987462,1,0.0,69119,2,1.35033,-0.081403,-11.631032,0.001199,-0.04743,-0.035306
1772551341.0041997,1,0.0,69119,3,0.316035,-0.560243,-11.511322,0.09526,0.096992,-0.02225
1772551341.0110564,1,0.0,69119,4,-0.02873,0.440533,-12.038046,-0.064084,-0.065283,-0.006262
1772551341.0219157,1,0.0,69148,1,0.756568,0.354342,-11.45865,-0.015855,-0.024914,-0.032908
1772551341.0275714,1,0.0,69148,2,1.273715,-0.181959,-11.377247,-0.011858,-0.004663,-0.03091
1772551341.0342853,1,0.0,69148,3,0.799663,-0.641646,-11.736377,-0.034507,0.00826,-0.015055
1772551341.0411358,1,0.0,69148,4,-0.272939,0.474052,-11.69807,-0.017453,-0.022783,-0.011858
1772551341.050523,1,0.0,69177,1,1.015141,0.387861,-11.717223,-0.011591,-0.022383,-0.028112
1772551341.057474,1,0.0,69177,2,1.283292,-0.162806,-11.377247,0.003331,-0.015588,-0.027579
1772551341.0628881,1,0.0,69177,3,0.565032,-0.885855,-11.717223,-0.045832,0.02145,-0.013456
1772551341.0697346,1,0.0,69177,4,-0.234632,0.507571,-11.640609,-0.02558,-0.009859,-0.005196
1772551341.080422,1,0.0,69206,1,1.000776,0.363919,-11.573571,-0.006262,-0.008926,-0.029977
1772551341.0859256,1,0.0,69206,2,1.173159,-0.129287,-11.310209,-0.01319,0.003864,-0.031709
1772551341.0913954,1,0.0,69206,3,0.699107,-0.770933,-11.310209,0.002132,0.056357,-0.021184
1772551341.0982783,1,0.0,69206,4,-0.186748,0.397437,-11.377247,-0.054891,-0.034907,-0.00373
1772551341.1089268,1,0.0,69235,1,0.799663,0.407014,-11.611878,0.002798,0.013456,-0.03544
1772551341.114498,1,0.0,69235,2,1.005565,-0.138864,-11.104307,-0.027979,-0.00453,-0.032109
1772551341.121208,1,0.0,69235,3,0.871489,-0.794875,-11.525687,0.087933,0.125904,-0.026247
1772551341.1267219,1,0.0,69235,4,-0.143652,0.445322,-11.03727,-0.052493,0.03091,-0.00373
1772551341.137589,1,0.0,69264,1,0.761356,0.158017,-11.836933,-0.007194,0.030643,-0.038237
1772551341.1443896,1,0.0,69264,2,0.881066,-0.148441,-11.401189,-0.051694,0.053292,-0.03504
1772551341.149872,1,0.0,69264,3,0.991199,-0.694318,-11.482592,0.049828,0.101123,-0.02558
1772551341.155375,1,0.0,69264,4,-0.110133,0.521936,-11.113884,-0.005329,0.049029,-0.003997
1772551341.1675308,1,0.0,69293,1,1.086968,0.292093,-11.57836,-0.018519,-0.002798,-0.028778
1772551341.1730485,1,0.0,69293,2,1.067814,-0.076614,-11.152191,-0.01732,0.026779,-0.031309
1772551341.1785848,1,0.0,69293,3,0.665588,-1.01993,-11.712435,-0.015855,0.012923,-0.014789
1772551341.1854656,1,0.0,69293,4,-0.186748,0.584185,-11.870452,-0.033441,0.008926,-0.006262
1772551341.2036765,1,0.0,69322,1,0.943315,0.258574,-11.271901,0.00373,-0.006928,-0.027845
1772551341.208928,1,0.0,69322,2,1.106121,-0.21069,-11.348516,-0.021184,0.039836,-0.031709
1772551341.2151232,1,0.0,69322,3,0.852336,-0.909797,-11.717223,-0.033974,-0.020917,-0.015855
1772551341.2205946,1,0.0,69322,4,-0.181959,0.555455,-11.69807,-0.021583,-0.012657,-0.005862
1772551341.2258143,1,0.0,69351,1,0.92895,0.320823,-11.640609,-0.009859,-0.005729,-0.030377
1772551341.2316601,1,0.0,69351,2,1.067814,-0.153229,-11.228806,-0.016654,-0.007061,-0.030643
1772551341.237076,1,0.0,69351,3,0.746991,-0.881066,-11.324574,0.002798,0.045832,-0.018119
1772551341.2427356,1,0.0,69351,4,-0.201113,0.545878,-11.707646,-0.038237,-0.000666,-0.006129
1772551341.2546604,1,0.0,69380,1,0.876278,0.373495,-11.372458,-0.001066,0.001732,-0.030776
1772551341.2602463,1,0.0,69380,2,1.187524,-0.023942,-11.401189,-0.027446,-0.00493,-0.028112
1772551341.2656858,1,0.0,69380,3,0.732626,-0.957681,-11.190498,0.127636,0.213303,-0.017986
1772551341.2725048,1,0.0,69380,4,-0.435745,0.392649,-12.081141,-0.045965,-0.074609,-0.005196
1772551341.2832837,1,0.0,69409,1,0.632069,0.622492,-11.420342,-0.012391,-0.061553,-0.033841
1772551341.288828,1,0.0,69409,2,1.134852,0.009577,-11.209652,-0.00866,-0.049429,-0.031842
1772551341.294287,1,0.0,69409,3,0.770933,-0.905008,-11.789049,0.045965,0.056224,-0.024115
1772551341.301158,1,0.0,69409,4,-0.282516,0.512359,-11.880029,-0.056357,-0.084868,-0.007727
1772551341.3117733,1,0.0,69438,1,0.555455,0.311246,-11.793838,0.006795,0.014522,-0.029977
1772551341.3174233,1,0.0,69438,2,1.010353,-0.201113,-11.415554,-0.009859,-0.006528,-0.031576
1772551341.3242445,1,0.0,69438,3,1.015141,-0.943315,-11.712435,-0.043167,-0.03957,-0.016254
1772551341.3298848,1,0.0,69438,4,-0.076614,0.603339,-11.190498,-0.011591,-0.02638,-0.005329
1772551341.341728,1,0.0,69467,1,0.766145,0.320823,-12.004527,-0.014389,0.014522,-0.031043
1772551341.3475575,1,0.0,69467,2,0.943315,-0.105345,-11.33894,-0.010925,0.000533,-0.031975
1772551341.3528507,1,0.0,69467,3,0.78051,-1.01993,-11.530476,-0.043167,-0.00493,-0.015188
1772551341.3596535,1,0.0,69467,4,-0.196325,0.497994,-11.540052,-0.028778,0.005196,-0.005862
1772551341.3702712,1,0.0,69496,1,0.823605,0.397437,-11.36767,0.016654,0.014922,-0.028112
1772551341.3758218,1,0.0,69496,2,1.01993,-0.081403,-11.334151,-0.014789,0.015588,-0.032775
1772551341.3814032,1,0.0,69496,3,0.818817,-0.972046,-11.386824,-0.006129,0.027046,-0.019851
1772551341.4120767,1,0.0,69496,4,-0.095768,0.474052,-11.506534,-0.045698,-0.017986,-0.005063
1772551341.4187598,1,0.0,69525,1,0.818817,0.349553,-11.702858,-0.015055,-0.002931,-0.036639
1772551341.4253032,1,0.0,69525,2,1.091756,-0.052672,-11.310209,-0.029977,-0.007861,-0.031975
1772551341.4304376,1,0.0,69525,3,0.881066,-0.981623,-10.845734,0.100989,0.16041,-0.020384
1772551341.4356256,1,0.0,69525,4,-0.378284,0.517148,-11.75553,-0.046631,-0.053026,-0.001865
1772551341.4407382,1,0.0,69554,1,0.588974,0.497994,-11.3964,-0.012124,-0.031842,-0.033175
1772551341.4457543,1,0.0,69554,2,1.024718,0.062249,-11.262324,-0.024781,-0.012923,-0.031309
1772551341.450614,1,0.0,69554,3,0.756568,-1.125275,-11.7268,0.049162,0.058355,-0.026779
1772551341.4556706,1,0.0,69554,4,-0.272939,0.54109,-12.014104,-0.047963,-0.08207,-0.001199
1772551341.4607122,1,0.0,69583,1,0.751779,0.488417,-11.880029,-0.02225,-0.034773,-0.030776
1772551341.465966,1,0.0,69583,2,0.914585,-0.158017,-11.405977,-0.011058,-0.01279,-0.033441
1772551341.4710867,1,0.0,69583,3,0.756568,-0.885855,-11.57836,-0.03877,-0.032242,-0.018786
1772551341.4760551,1,0.0,69583,4,-0.105345,0.593762,-11.425131,-0.021184,0.017986,-0.005063
1772551341.4860914,1,0.0,69612,1,0.814029,0.320823,-11.645397,-0.006528,0.003464,-0.032242
1772551341.491647,1,0.0,69612,2,0.957681,-0.076614,-11.123461,-0.026113,0.006528,-0.033974
1772551341.497202,1,0.0,69612,3,0.847547,-1.043872,-11.573571,-0.043567,-0.011458,-0.020518
1772551341.5045443,1,0.0,69612,4,-0.172383,0.59855,-11.678916,-0.03011,-0.010126,-0.003064
1772551341.5146601,1,0.0,69641,1,0.847547,0.363919,-11.449073,0.003864,0.003864,-0.031842
1772551341.521495,1,0.0,69641,2,1.024718,-0.110133,-11.353305,-0.008926,0.017853,-0.035306
1772551341.5270324,1,0.0,69641,3,0.885855,-1.077391,-11.597513,-0.041035,-0.008127,-0.017453
1772551341.532641,1,0.0,69641,4,-0.062249,0.550666,-11.592725,-0.046631,-0.018652,-0.004263
1772551341.5447206,1,0.0,69670,1,0.852336,0.344765,-11.640609,-0.009726,-0.014522,-0.035706
1772551341.5502763,1,0.0,69670,2,1.096544,-0.062249,-11.501745,-0.004263,-0.010525,-0.035306
1772551341.5559413,1,0.0,69670,3,0.909797,-1.192312,-11.568783,0.046231,0.082737,-0.022383
1772551341.5625935,1,0.0,69670,4,-0.263362,0.493206,-11.717223,-0.071545,-0.057556,0.000799
1772551341.5733304,1,0.0,69699,1,0.565032,0.430956,-11.425131,-0.011191,-0.01359,-0.03877
1772551341.578874,1,0.0,69699,2,1.149217,-0.052672,-11.525687,-0.001599,-0.033041,-0.035173
1772551341.584366,1,0.0,69699,3,1.024718,-1.096544,-12.009315,0.065417,0.0429,-0.017986
1772551341.5912125,1,0.0,69699,4,-0.21069,0.579397,-11.808203,-0.045299,-0.115645,-0.000266
1772551341.6019068,1,0.0,69728,1,0.54109,0.459687,-12.038046,-0.015721,-0.038904,-0.036239
1772551341.6075656,1,0.0,69728,2,0.957681,-0.138864,-10.955867,-0.021184,-0.057023,-0.03464
1772551341.614372,1,0.0,69728,3,0.919373,-1.13964,-12.100295,-0.009726,-0.01732,-0.024381
1772551341.6211982,1,0.0,69728,4,-0.09098,0.708684,-11.765107,-0.021717,-0.030643,-0.005862
1772551341.6317124,1,0.0,69757,1,0.756568,0.354342,-11.712435,-0.011858,0.012391,-0.03091
1772551341.637342,1,0.0,69757,2,0.943315,-0.11971,-11.238382,-0.025714,-0.005862,-0.035306
1772551341.6429152,1,0.0,69757,3,0.914585,-1.082179,-11.501745,-0.044499,-0.016521,-0.014789
1772551341.649892,1,0.0,69757,4,-0.172383,0.526724,-11.496957,-0.026779,-0.005729,-0.003198
1772551341.6603572,1,0.0,69786,1,0.804452,0.407014,-11.525687,0.00906,-0.004263,-0.03091
1772551341.6658628,1,0.0,69786,2,0.972046,-0.110133,-11.401189,-0.006928,0.015322,-0.034374
1772551341.6714559,1,0.0,69786,3,0.847547,-1.130063,-11.410766,-0.032508,-0.001865,-0.016521
1772551341.6783755,1,0.0,69786,4,-0.11971,0.526724,-11.506534,-0.053692,-0.021583,-0.00413
1772551341.6963782,1,0.0,69815,1,0.876278,0.296881,-11.611878,-0.001199,-0.004796,-0.035306
1772551341.7014928,1,0.0,69815,2,0.981623,-0.114922,-11.358093,-0.018253,-0.01319,-0.033574
1772551341.7075024,1,0.0,69815,3,1.015141,-1.091756,-11.511322,0.032508,0.059421,-0.022116
1772551341.7124975,1,0.0,69815,4,-0.09098,0.608127,-11.525687,-0.037704,0.018786,-0.004796
1772551341.7178056,1,0.0,69844,1,0.962469,0.306458,-11.741165,-0.025047,-0.112447,-0.036772
1772551341.7245667,1,0.0,69844,2,0.837971,-0.134075,-11.520899,-0.035173,-0.023715,-0.031709
1772551341.730063,1,0.0,69844,3,0.837971,-1.015141,-11.329363,0.046231,0.090064,-0.01692
1772551341.7368047,1,0.0,69844,4,-0.167594,0.665588,-11.013328,-0.034907,0.039303,-0.006129
1772551341.7475462,1,0.0,69873,1,0.924162,0.397437,-11.530476,-0.026646,-0.040369,-0.032109
1772551341.7530706,1,0.0,69873,2,0.919373,-0.105345,-11.544841,-0.01319,0.033708,-0.027979
1772551341.7586343,1,0.0,69873,3,0.924162,-1.292869,-11.774684,-0.006395,0.049029,-0.010525
1772551341.765439,1,0.0,69873,4,-0.138864,0.646434,-11.597513,-0.038104,0.014789,-0.005995
1772551341.7761137,1,0.0,69902,1,0.785298,0.474052,-11.449073,0.016787,-0.017986,-0.027845
1772551341.7815804,1,0.0,69902,2,0.957681,-0.153229,-11.496957,0.0004,0.036239,-0.032375
1772551341.7876618,1,0.0,69902,3,0.972046,-1.307234,-11.784261,-0.032908,-0.004796,-0.01692
1772551341.79408,1,0.0,69902,4,-0.138864,0.670376,-11.554418,-0.023315,-0.003997,-0.005462
1772551341.8047938,1,0.0,69931,1,0.785298,0.435745,-11.784261,-0.010525,-0.018919,-0.033574
1772551341.8115854,1,0.0,69931,2,0.919373,-0.143652,-11.18571,-0.021983,0.00493,-0.035173
1772551341.8170571,1,0.0,69931,3,0.948104,-1.115698,-11.219229,-0.021051,0.005196,-0.01772
1772551341.8239677,1,0.0,69931,4,-0.205901,0.521936,-11.57836,-0.03917,-0.01732,-0.002132
1772551341.8346558,1,0.0,69960,1,0.708684,0.416591,-11.401189,-0.011458,-0.03011,-0.034773
1772551341.8405604,1,0.0,69960,2,0.952892,-0.143652,-11.554418,-0.014922,-0.013856,-0.03091
1772551341.8457491,1,0.0,69960,3,0.967257,-1.115698,-11.032481,0.074609,0.076342,-0.020518
1772551341.852588,1,0.0,69960,4,-0.143652,0.574608,-11.563994,-0.059155,-0.027845,-0.002665
1772551341.863278,1,0.0,69989,1,0.593762,0.493206,-11.654974,-0.057556,-0.067149,-0.036239
1772551341.8688905,1,0.0,69989,2,0.962469,-0.033519,-11.118672,-0.021051,-0.037571,-0.030776
1772551341.8743496,1,0.0,69989,3,1.01993,-1.388637,-12.061988,0.057289,0.050228,-0.018786
1772551341.881219,1,0.0,69989,4,-0.181959,0.656011,-12.090718,-0.066882,-0.017187,-0.005596
1772551341.8949585,1,0.0,70018,1,0.656011,0.387861,-11.640609,0.003864,0.007461,-0.031709
1772551341.9014554,1,0.0,70018,2,0.895431,-0.148441,-11.602302,-0.003597,-0.003864,-0.034907
1772551341.908153,1,0.0,70018,3,1.182736,-1.115698,-11.631032,-0.029711,-0.020384,-0.015455
1772551341.9131968,1,0.0,70018,4,-0.220267,0.699107,-11.554418,0.002531,-0.025714,-0.004663
1772551341.9216602,1,0.0,70047,1,0.670376,0.373495,-11.616667,0.013057,0.015988,-0.031043
1772551341.9272587,1,0.0,70047,2,0.871489,-0.11971,-11.171345,-0.027845,-0.011591,-0.035573
1772551341.933242,1,0.0,70047,3,0.962469,-1.192312,-11.511322,-0.048763,-0.011325,-0.016254
1772551341.9397478,1,0.0,70047,4,-0.167594,0.656011,-11.597513,-0.031043,-0.014256,-0.002931
1772551341.9503465,1,0.0,70076,1,0.656011,0.426168,-11.386824,-0.009459,0.012524,-0.032375
1772551341.955855,1,0.0,70076,2,1.000776,-0.086191,-11.405977,-0.00453,0.005063,-0.034107
1772551341.9615037,1,0.0,70076,3,1.058237,-1.192312,-11.305421,-0.019985,-0.000266,-0.017587
1772551341.9683197,1,0.0,70076,4,-0.129287,0.536301,-11.573571,-0.049029,-0.009593,-0.005596
1772551341.9794896,1,0.0,70105,1,0.80924,0.35913,-11.808203,-0.020784,-0.064351,-0.03504
1772551341.9852052,1,0.0,70105,2,0.871489,-0.191536,-11.161768,-0.038904,-0.046631,-0.032109
1772551341.9913945,1,0.0,70105,3,0.957681,-1.173159,-11.678916,0.036372,0.05156,-0.018253
1772551341.9968853,1,0.0,70105,4,-0.086191,0.627281,-11.343728,-0.075009,0.036772,-0.009459
1772551342.007663,1,0.0,70134,1,0.732626,0.306458,-11.60709,-0.010126,-0.0004,-0.032642
1772551342.0145,1,0.0,70134,2,0.972046,-0.134075,-11.51611,-0.019585,-0.028378,-0.031443
1772551342.0199535,1,0.0,70134,3,1.211466,-1.278504,-11.659762,0.033974,0.049962,-0.017054
1772551342.026803,1,0.0,70134,4,-0.177171,0.68953,-11.233594,-0.036905,-0.00373,-0.006528
1772551342.0374117,1,0.0,70163,1,0.603339,0.483629,-11.707646,0.010259,0.009726,-0.032242
1772551342.0429113,1,0.0,70163,2,0.92895,-0.014365,-11.252748,-0.023982,0.014655,-0.033841
1772551342.0484293,1,0.0,70163,3,1.134852,-1.450886,-11.870452,-0.023449,0.005862,-0.011858
1772551342.0553067,1,0.0,70163,4,-0.105345,0.679953,-11.808203,-0.034773,-0.006662,-0.005462
1772551342.0661747,1,0.0,70192,1,0.742203,0.435745,-11.63582,-0.01319,-0.011191,-0.031309
1772551342.072356,1,0.0,70192,2,0.890643,-0.09098,-11.573571,-0.000266,0.031309,-0.032775
1772551342.0775487,1,0.0,70192,3,1.072602,-1.422156,-11.631032,-0.037838,-0.003464,-0.013856
1772551342.0841498,1,0.0,70192,4,-0.124498,0.699107,-11.597513,-0.021583,-0.000133,-0.00413
1772551342.0947049,1,0.0,70221,1,0.727837,0.426168,-11.616667,0.001599,-0.002398,-0.030776
1772551342.101575,1,0.0,70221,2,0.919373,-0.143652,-11.123461,-0.021983,0.015322,-0.031309
1772551342.1070423,1,0.0,70221,3,1.115698,-1.407791,-11.372458,-0.008527,0.011724,-0.015721
1772551342.112601,1,0.0,70221,4,-0.086191,0.646434,-11.674128,-0.053559,-0.007194,-0.005329
1772551342.1247053,1,0.0,70250,1,0.68953,0.512359,-11.587936,-0.065683,-0.067548,-0.037838
1772551342.1302638,1,0.0,70250,2,1.058237,-0.057461,-11.453861,-0.012923,-0.027979,-0.031842
1772551342.135726,1,0.0,70250,3,1.039083,-1.345541,-11.152191,0.085135,0.059821,-0.013856
1772551342.1426196,1,0.0,70250,4,-0.253785,0.679953,-12.430696,-0.055291,-0.022783,-0.005596
1772551342.1533246,1,0.0,70279,1,0.694318,0.56982,-11.305421,-0.046631,-0.134164,-0.034374
1772551342.15879,1,0.0,70279,2,1.034295,0.043096,-11.228806,-0.017453,-0.036505,-0.03011
1772551342.1642663,1,0.0,70279,3,0.924162,-1.441309,-11.789049,0.053292,0.048629,-0.021317
1772551342.171099,1,0.0,70279,4,-0.21069,0.723049,-12.224793,-0.042767,-0.033041,-0.001998
1772551342.1819222,1,0.0,70308,1,0.588974,0.54109,-11.329363,-0.001466,-0.016787,-0.032375
1772551342.1877422,1,0.0,70308,2,0.852336,-0.105345,-11.262324,-0.012124,0.007861,-0.033974
1772551342.19431,1,0.0,70308,3,1.163582,-1.335965,-11.496957,-0.035573,-0.019718,-0.015588
1772551342.2072017,1,0.0,70308,4,-0.191536,0.713472,-11.745954,-0.027446,-0.016787,-0.00493
1772551342.2136536,1,0.0,70337,1,0.665588,0.445322,-11.568783,-0.0004,0.00413,-0.033308
1772551342.2199655,1,0.0,70337,2,0.876278,-0.071826,-11.252748,-0.013856,-0.012124,-0.038504
1772551342.2252345,1,0.0,70337,3,1.039083,-1.335965,-11.669339,-0.041968,-0.019185,-0.016387
1772551342.2304292,1,0.0,70337,4,-0.186748,0.646434,-11.568783,-0.033308,-0.004263,-0.002798
1772551342.2402642,1,0.0,70366,1,0.646434,0.440533,-11.45865,0.00493,0.000533,-0.031842
1772551342.2458463,1,0.0,70366,2,0.948104,-0.076614,-11.190498,-0.020651,-0.007994,-0.03424
1772551342.2513828,1,0.0,70366,3,1.077391,-1.331176,-11.257536,-0.002398,0.021051,-0.016654
1772551342.2583153,1,0.0,70366,4,-0.138864,0.579397,-11.525687,-0.067149,-0.02598,-0.001599
1772551342.2711356,1,0.0,70395,1,0.627281,0.387861,-11.386824,-0.024381,-0.024115,-0.033441
1772551342.2827616,1,0.0,70395,2,0.823605,-0.143652,-11.118672,-0.021317,-0.03917,-0.029577
1772551342.2925272,1,0.0,70395,3,1.163582,-1.35033,-11.224017,0.071412,0.034507,-0.018519
1772551342.3027935,1,0.0,70395,4,-0.225055,0.746991,-11.085154,-0.084469,-0.010925,-0.005196
1772551342.3135493,1,0.0,70424,1,0.42138,0.445322,-11.712435,0.020917,0.000799,-0.031576
1772551342.3254714,1,0.0,70424,2,0.59855,-0.100556,-11.204864,-0.035706,-0.011458,-0.032242
1772551342.3392684,1,0.0,70424,3,1.278504,-1.37906,-11.693281,0.018253,0.001599,-0.013989
1772551342.3455415,1,0.0,70424,4,-0.148441,0.814029,-11.535264,-0.020784,-0.016121,-0.005196
1772551342.35046,1,0.0,70453,1,0.742203,0.531513,-11.511322,-0.003864,0.007861,-0.033041
1772551342.3562324,1,0.0,70453,2,0.876278,0.004788,-11.597513,-0.007594,0.001332,-0.034907
1772551342.3614724,1,0.0,70453,3,1.077391,-1.546654,-11.382035,-0.03424,0.008926,-0.009992
1772551342.3665898,1,0.0,70453,4,-0.153229,0.708684,-11.683704,-0.03091,0.005462,-0.003064
1772551342.3714597,1,0.0,70482,1,0.584185,0.54109,-11.377247,0.006395,0.000133,-0.03011
1772551342.3764687,1,0.0,70482,2,0.814029,-0.076614,-11.45865,-0.011191,0.024914,-0.034907
1772551342.3818145,1,0.0,70482,3,1.134852,-1.374272,-11.659762,-0.040103,-0.014922,-0.017453
1772551342.416732,1,0.0,70482,4,-0.134075,0.723049,-11.540052,-0.020784,-0.014922,-0.00373
1772551342.4233677,1,0.0,70511,1,0.68953,0.383072,-11.707646,-0.007461,-0.010925,-0.031176
1772551342.4313788,1,0.0,70511,2,0.833182,-0.134075,-11.123461,-0.023049,-0.00453,-0.031842
1772551342.436578,1,0.0,70511,3,1.115698,-1.465251,-11.343728,-0.011991,0.008394,-0.014522
1772551342.4420748,1,0.0,70511,4,-0.129287,0.756568,-11.774684,-0.050228,0.003997,-0.005462
1772551342.4471283,1,0.0,70540,1,0.627281,0.445322,-11.425131,-0.032109,-0.042101,-0.034773
1772551342.452262,1,0.0,70540,2,0.948104,-0.052672,-11.511322,-0.019985,-0.025314,-0.029311
1772551342.4573076,1,0.0,70540,3,1.082179,-1.527501,-11.190498,0.084469,0.076342,-0.010925
1772551342.4623556,1,0.0,70540,4,-0.196325,0.699107,-12.157756,-0.054492,-0.033974,-0.0004
1772551342.4673471,1,0.0,70569,1,0.454898,0.608127,-11.300632,-0.048096,-0.103787,-0.037571
1772551342.4724326,1,0.0,70569,2,1.01993,-0.100556,-11.415554,-0.007994,-0.037571,-0.030643
1772551342.4775047,1,0.0,70569,3,1.04866,-1.537078,-11.530476,0.039836,0.031576,-0.004796
1772551342.482515,1,0.0,70569,4,-0.244209,0.713472,-12.243947,-0.054625,-0.032908,-0.003464
1772551342.4875987,1,0.0,70598,1,0.416591,0.608127,-11.501745,0.024381,-0.017054,-0.029444
1772551342.4925225,1,0.0,70598,2,0.837971,-0.071826,-11.032481,-0.014256,0.001998,-0.035573
1772551342.497568,1,0.0,70598,3,1.192312,-1.431733,-11.769896,-0.044632,-0.028778,-0.014256
1772551342.5026143,1,0.0,70598,4,-0.062249,0.751779,-11.439496,-0.022916,-0.022116,-0.00493
1772551342.5084836,1,0.0,70627,1,0.679953,0.430956,-11.793838,-0.00866,-0.0004,-0.033175
1772551342.513892,1,0.0,70627,2,0.790087,-0.043096,-11.104307,-0.023449,-0.001199,-0.036239
1772551342.5191295,1,0.0,70627,3,1.106121,-1.551443,-11.48738,-0.046764,-0.009193,-0.014123
1772551342.5241628,1,0.0,70627,4,-0.162806,0.703895,-11.741165,-0.034907,0.006928,-0.004663
1772551342.530258,1,0.0,70656,1,0.526724,0.531513,-11.281479,0.007194,0.007594,-0.030643
1772551342.535947,1,0.0,70656,2,0.871489,-0.067038,-11.477803,-0.006528,0.002931,-0.03424
1772551342.5432703,1,0.0,70656,3,1.11091,-1.517924,-11.3964,-0.018386,0.006262,-0.017187
1772551342.5485358,1,0.0,70656,4,-0.095768,0.651223,-11.525687,-0.047564,-0.00866,-0.003997
1772551342.5593398,1,0.0,70685,1,0.703895,0.397437,-11.793838,-0.022383,-0.060887,-0.03424
1772551342.5646644,1,0.0,70685,2,0.790087,-0.057461,-11.314998,-0.025047,-0.025181,-0.033574
1772551342.5713928,1,0.0,70685,3,1.25935,-1.307234,-10.965444,0.059554,0.056623,-0.01279
1772551342.5768964,1,0.0,70685,4,-0.148441,0.92895,-11.334151,-0.064617,0.014922,-0.00413
1772551342.5876532,1,0.0,70714,1,0.56982,0.296881,-11.530476,-0.030643,-0.0429,-0.035706
1772551342.5944219,1,0.0,70714,2,0.890643,0.316035,-11.511322,-0.010126,-0.000533,-0.028378
1772551342.5999215,1,0.0,70714,3,1.58975,-1.422156,-11.176133,0.055691,0.052093,-0.014655
1772551342.605574,1,0.0,70714,4,-0.215478,0.775721,-11.769896,-0.0441,-0.048096,-0.003597
1772551342.617499,1,0.0,70743,1,0.426168,0.574608,-11.439496,-0.001066,0.003198,-0.027845
1772551342.6229072,1,0.0,70743,2,0.684742,0.062249,-11.032481,-0.026113,0.007194,-0.037438
1772551342.6285257,1,0.0,70743,3,1.130063,-1.781286,-11.717223,-0.042501,-0.016654,-0.020917
1772551342.6353471,1,0.0,70743,4,0.019154,0.756568,-11.899182,-0.030377,-0.011858,-0.003198
1772551342.6461143,1,0.0,70772,1,0.59855,0.531513,-11.477803,-0.011458,0.004796,-0.035306
1772551342.6518903,1,0.0,70772,2,0.804452,-0.110133,-11.257536,-0.014256,0.00906,-0.03544
1772551342.657218,1,0.0,70772,3,1.206678,-1.474828,-11.496957,-0.042634,-0.001599,-0.015055
1772551342.6640005,1,0.0,70772,4,-0.138864,0.756568,-11.587936,-0.025714,0.002931,-0.002931
1772551342.674703,1,0.0,70801,1,0.636858,0.368707,-11.453861,0.003331,-0.018119,-0.03091
1772551342.6815298,1,0.0,70801,2,0.842759,-0.057461,-11.295844,-0.013723,0.005063,-0.033574
1772551342.6870108,1,0.0,70801,3,1.278504,-1.489193,-11.511322,-0.00373,0.009859,-0.016387
1772551342.6926587,1,0.0,70801,4,-0.225055,1.072602,-11.812991,-0.026513,-0.001732,-0.009992
1772551342.7091105,1,0.0,70830,1,0.785298,0.579397,-11.477803,-0.040902,-0.070346,-0.03051
1772551342.7146347,1,0.0,70830,2,0.775721,-0.368707,-10.941502,-0.039303,-0.040236,-0.025447
1772551342.7205477,1,0.0,70830,3,0.871489,-1.747767,-12.033257,0.044899,0.075009,-0.013323
1772551342.725759,1,0.0,70830,4,-0.282516,0.833182,-12.263102,-0.045698,0.101655,-0.014256
1772551342.7333338,1,0.0,70859,1,0.972046,0.387861,-11.03727,-0.044499,-0.078606,-0.028778
1772551342.7388933,1,0.0,70859,2,0.742203,-0.45011,-11.238382,-0.024248,-0.025714,-0.02558
1772551342.744329,1,0.0,70859,3,0.933739,-1.575385,-11.702858,0.038371,0.067681,-0.012524
1772551342.7511268,1,0.0,70859,4,-0.186748,0.335188,-11.544841,-0.034107,0.094461,-0.012257
1772551342.761834,1,0.0,70888,1,0.641646,0.306458,-11.147403,0.008394,-0.021184,-0.032242
1772551342.7673924,1,0.0,70888,2,0.603339,-0.244209,-10.931925,-0.017853,0.0433,-0.040902
1772551342.7742422,1,0.0,70888,3,1.651999,-1.556231,-11.60709,-0.010392,-0.014389,-0.02638
1772551342.7797518,1,0.0,70888,4,0.047884,0.924162,-11.549629,-0.033974,-0.017187,-0.008127
1772551342.7916315,1,0.0,70917,1,0.603339,0.603339,-11.87524,0.007994,0.00826,-0.031309
1772551342.7975912,1,0.0,70917,2,0.962469,-0.095768,-11.257536,-0.01279,-0.010259,-0.035573
1772551342.8028638,1,0.0,70917,3,1.096544,-1.613692,-11.583148,-0.057023,-0.007594,-0.011325
1772551342.8096824,1,0.0,70917,4,-0.248997,0.775721,-11.45865,-0.029844,0.00493,-0.003198
1772551342.8204122,1,0.0,70946,1,0.521936,0.521936,-11.386824,-0.009992,-0.007194,-0.030377
1772551342.825925,1,0.0,70946,2,0.699107,-0.11971,-11.401189,-0.011858,0.001599,-0.032775
1772551342.831464,1,0.0,70946,3,1.197101,-1.656788,-11.233594,-0.00866,0.012657,-0.017986
1772551342.8383002,1,0.0,70946,4,-0.019154,0.45011,-11.018116,-0.07381,-0.000533,0.000799
1772551342.849343,1,0.0,70975,1,0.531513,0.11971,-11.27669,-0.008527,-0.055691,-0.034907
1772551342.8545578,1,0.0,70975,2,0.440533,-0.488417,-10.773908,-0.036639,0.002398,-0.039703
1772551342.8613145,1,0.0,70975,3,1.460463,-1.335965,-11.84651,0.062752,0.033175,-0.024914
1772551342.866753,1,0.0,70975,4,0.086191,0.995988,-11.291056,-0.055557,0.057689,-0.015055
1772551342.8777657,1,0.0,71004,1,0.828394,0.110133,-11.377247,-0.027046,-0.055557,-0.035573
1772551342.8912601,1,0.0,71004,2,0.905008,-0.493206,-11.152191,-0.031443,-0.035173,-0.033574
1772551342.8963385,1,0.0,71004,3,1.072602,-1.278504,-11.774684,0.047963,0.060887,-0.008394
1772551342.902073,1,0.0,71004,4,0.033519,0.976834,-11.228806,-0.039703,0.086867,-0.017187
1772551342.9075117,1,0.0,71033,1,0.483629,0.56982,-11.429919,-0.03051,0.006129,-0.035706
1772551342.9129455,1,0.0,71033,2,0.699107,0.019154,-11.544841,-0.004796,0.025314,-0.032642
1772551342.9185314,1,0.0,71033,3,1.355118,-1.786075,-11.640609,-0.024914,-0.007727,-0.019851
1772551342.9254243,1,0.0,71033,4,-0.177171,0.981623,-11.439496,-0.039836,-0.021184,-0.001998
1772551342.9360163,1,0.0,71062,1,0.301669,0.670376,-11.683704,0.016387,0.026913,-0.027446
1772551342.9418292,1,0.0,71062,2,0.627281,-0.057461,-11.362882,-0.029178,0.010259,-0.037305
1772551342.9471736,1,0.0,71062,3,1.16837,-1.733402,-11.568783,-0.045698,-0.011591,-0.015988
1772551342.9540696,1,0.0,71062,4,-0.143652,0.833182,-11.540052,-0.021583,-0.009726,-0.003464
1772551342.964766,1,0.0,71091,1,0.469264,0.584185,-11.535264,-0.014256,-0.01359,-0.031443
1772551342.9716396,1,0.0,71091,2,0.646434,-0.143652,-11.429919,-0.01359,-0.00373,-0.032375
1772551342.9772024,1,0.0,71091,3,1.25935,-1.833959,-11.228806,-0.013323,0.012124,-0.016387
1772551342.9839497,1,0.0,71091,4,-0.21069,0.694318,-11.343728,-0.066083,-0.009593,0.002531
1772551342.994693,1,0.0,71120,1,0.21069,0.703895,-11.822568,-0.019851,-0.028645,-0.027046
1772551343.0002086,1,0.0,71120,2,0.565032,0.105345,-11.568783,-0.023182,-0.007727,-0.02598
1772551343.0057561,1,0.0,71120,3,1.221043,-1.953669,-11.171345,0.061953,0.060753,-0.01319
1772551343.0125353,1,0.0,71120,4,-0.138864,0.857124,-12.215217,-0.058089,-0.031443,-0.005462
1772551343.0232744,1,0.0,71149,1,0.114922,0.967257,-11.645397,-0.034907,-0.065283,-0.032642
1772551343.0287886,1,0.0,71149,2,0.948104,0.258574,-11.48738,-0.004397,-0.079139,-0.025047
1772551343.0343049,1,0.0,71149,3,1.149217,-2.020706,-11.463438,0.01772,0.039436,-0.010525
1772551343.0410597,1,0.0,71149,4,-0.272939,0.560243,-11.707646,-0.082603,-0.03877,0.005729
1772551343.0518131,1,0.0,71178,1,0.402226,0.512359,-11.549629,0.017587,-0.046098,-0.032642
1772551343.0573401,1,0.0,71178,2,0.833182,0.033519,-11.142614,0.002531,-0.001998,-0.036905
1772551343.064066,1,0.0,71178,3,1.374272,-1.608904,-11.669339,-0.037172,0.00373,-0.008394
1772551343.069622,1,0.0,71178,4,-0.095768,0.972046,-11.511322,-0.028778,-0.017187,0.001066
1772551343.0818791,1,0.0,71207,1,0.560243,0.579397,-11.750742,-0.00906,-0.027579,-0.031443
1772551343.087318,1,0.0,71207,2,0.713472,-0.105345,-11.353305,-0.021051,0.027712,-0.033974
1772551343.0929093,1,0.0,71207,3,1.144428,-1.915361,-11.420342,-0.04823,-0.005462,-0.013323
1772551343.0997612,1,0.0,71207,4,-0.181959,0.699107,-11.774684,-0.029044,-0.002398,-0.003597
1772551343.110432,1,0.0,71236,1,0.320823,0.517148,-11.314998,-0.008394,-0.027046,-0.033441
1772551343.1160133,1,0.0,71236,2,0.80924,-0.076614,-11.219229,-0.007061,-0.027312,-0.033041
1772551343.1215494,1,0.0,71236,3,1.249773,-1.838747,-11.386824,-0.000666,0.023049,-0.015055
1772551343.1283247,1,0.0,71236,4,-0.033519,0.665588,-11.640609,-0.061686,0.015455,-0.007994
1772551343.139068,1,0.0,71265,1,0.6608,0.167594,-11.147403,-0.028112,-0.077674,-0.032642
1772551343.1446445,1,0.0,71265,2,0.718261,-0.397437,-10.697293,-0.044233,-0.041968,-0.035972
1772551343.1513696,1,0.0,71265,3,1.244985,-1.431733,-11.501745,0.083802,0.076475,-0.016254
1772551343.1568937,1,0.0,71265,4,-0.02873,0.555455,-11.401189,-0.07874,0.031443,-0.010259
1772551343.1676414,1,0.0,71294,1,0.608127,0.253785,-10.884041,-0.015988,-0.072478,-0.031043
1772551343.17444,1,0.0,71294,2,0.311246,-0.363919,-10.960655,-0.02145,0.024914,-0.037438
1772551343.179899,1,0.0,71294,3,1.685518,-1.704672,-11.554418,0.036372,0.024381,-0.026113
1772551343.1854448,1,0.0,71294,4,0.071826,1.034295,-11.664551,-0.039969,-0.005862,-0.008127
1772551343.204314,1,0.0,71323,1,0.287304,0.550666,-11.602302,0.000799,0.024781,-0.029711
1772551343.2095392,1,0.0,71323,2,0.651223,-0.191536,-11.348516,-0.020251,0.020251,-0.036372
1772551343.2157383,1,0.0,71323,3,1.307234,-1.723825,-11.597513,-0.044233,-0.01692,-0.021051
1772551343.2216866,1,0.0,71323,4,-0.248997,0.981623,-11.391612,-0.037438,-0.010259,-0.005862
1772551343.2266934,1,0.0,71352,1,0.268151,0.670376,-11.420342,-0.000799,0.012524,-0.032375
1772551343.232057,1,0.0,71352,2,0.861913,-0.09098,-11.415554,-0.005729,-0.017453,-0.033974
1772551343.2373042,1,0.0,71352,3,1.307234,-1.810017,-11.477803,-0.043567,-0.002798,-0.012923
1772551343.2441936,1,0.0,71352,4,-0.148441,0.823605,-11.525687,-0.034374,-0.000133,-0.001998
1772551343.2548025,1,0.0,71381,1,0.320823,0.675165,-11.420342,-0.005995,-0.023182,-0.030377
1772551343.2616613,1,0.0,71381,2,0.699107,-0.162806,-11.209652,-0.018253,-0.011858,-0.033574
1772551343.2671683,1,0.0,71381,3,1.187524,-1.996764,-11.482592,-0.003064,0.020917,-0.018386
1772551343.273165,1,0.0,71381,4,-0.124498,1.154005,-11.750742,-0.064884,0.013057,-0.007727
1772551343.2847002,1,0.0,71410,1,0.047884,0.981623,-11.836933,-0.019052,-0.061819,-0.039703
1772551343.290222,1,0.0,71410,2,1.039083,0.038307,-11.592725,-0.008926,-0.093395,-0.023449
1772551343.2956595,1,0.0,71410,3,1.144428,-2.020706,-12.004527,0.03877,0.069813,-0.009593
1772551343.3024666,1,0.0,71410,4,-0.229843,1.273715,-11.96622,-0.057289,0.028378,-0.005995
1772551343.3133175,1,0.0,71439,1,0.153229,0.914585,-11.760319,-0.01279,-0.081804,-0.039436
1772551343.3188083,1,0.0,71439,2,1.125275,0.167594,-11.48738,-0.008527,-0.069147,-0.023582
1772551343.324195,1,0.0,71439,3,0.938527,-2.1883,-11.84651,0.003464,0.052626,0.00373
1772551343.3310251,1,0.0,71439,4,-0.368707,0.924162,-11.611878,-0.045165,0.010259,0.003064
1772551343.3419394,1,0.0,71468,1,0.512359,0.636858,-11.568783,-0.006395,-0.051694,-0.031842
1772551343.34737,1,0.0,71468,2,0.435745,0.02873,-11.583148,-0.010126,0.063951,-0.031443
1772551343.354218,1,0.0,71468,3,1.455675,-2.044648,-11.540052,-0.036905,-0.001865,-0.015721
1772551343.359746,1,0.0,71468,4,0.043096,0.837971,-11.535264,-0.034374,-0.011991,-0.001998
1772551343.3718116,1,0.0,71497,1,0.402226,0.59855,-11.798626,-0.001732,-0.010525,-0.031309
1772551343.3775182,1,0.0,71497,2,0.641646,-0.019154,-11.439496,-0.016787,0.011325,-0.036372
1772551343.3971953,1,0.0,71497,3,1.292869,-1.905785,-11.511322,-0.045299,-0.006262,-0.015055
1772551343.412069,1,0.0,71497,4,-0.004788,0.794875,-11.674128,-0.036372,-0.015721,-0.003997
1772551343.4198496,1,0.0,71526,1,0.258574,0.656011,-11.477803,-0.004263,-0.042634,-0.033841
1772551343.425149,1,0.0,71526,2,0.665588,0.019154,-11.386824,-0.008127,-0.018519,-0.033175
1772551343.4303737,1,0.0,71526,3,1.398214,-1.944092,-10.979809,0.010126,0.032109,-0.018119
1772551343.4353511,1,0.0,71526,4,0.02873,0.263362,-11.683704,-0.094328,-0.037838,-0.003064
1772551343.440541,1,0.0,71555,1,0.220267,0.387861,-11.429919,-0.025047,-0.086334,-0.027046
1772551343.4455462,1,0.0,71555,2,0.134075,0.325611,-11.544841,-0.011991,-0.02638,-0.037971
1772551343.4505343,1,0.0,71555,3,1.608904,-2.035071,-10.893618,0.066749,0.050361,-0.024781
1772551343.455734,1,0.0,71555,4,-0.076614,0.684742,-11.702858,-0.080072,-0.099124,0.010792
1772551343.4607456,1,0.0,71584,1,0.167594,0.244209,-11.410766,0.0,-0.015721,-0.028778
1772551343.465756,1,0.0,71584,2,0.282516,-0.191536,-10.960655,-0.032775,-0.008394,-0.043966
1772551343.470946,1,0.0,71584,3,1.747767,-1.527501,-11.880029,-0.007994,-0.008793,-0.026779
1772551343.476904,1,0.0,71584,4,-0.196325,1.091756,-11.176133,-0.036772,-0.014123,-0.008527
1772551343.487394,1,0.0,71613,1,0.229843,0.703895,-11.688493,0.006662,0.007328,-0.033441
1772551343.4929678,1,0.0,71613,2,0.92895,-0.081403,-11.190498,-0.008127,-0.031975,-0.032775
1772551343.4985385,1,0.0,71613,3,1.206678,-2.015918,-11.473015,-0.056623,0.004263,-0.00493
1772551343.5053473,1,0.0,71613,4,-0.153229,0.857124,-11.683704,-0.034907,0.034107,-0.001199
1772551343.5162108,1,0.0,71642,1,0.215478,0.560243,-11.334151,-0.002265,-0.020917,-0.033041
1772551343.5216842,1,0.0,71642,2,0.56982,0.0,-11.439496,-0.00373,0.011058,-0.03504
1772551343.5272262,1,0.0,71642,3,1.422156,-1.924938,-11.477803,-0.043966,-0.009193,-0.015188
1772551343.534031,1,0.0,71642,4,-0.062249,1.072602,-11.425131,-0.024781,-0.018119,0.001332
1772551343.5446713,1,0.0,71671,1,0.3304,0.526724,-11.717223,0.006395,0.021717,-0.031975
1772551343.5513785,1,0.0,71671,2,0.507571,0.071826,-11.492168,-0.010259,0.047031,-0.036772
1772551343.55775,1,0.0,71671,3,1.398214,-2.059013,-11.736377,-0.092196,-0.037305,-0.007461
1772551343.5628653,1,0.0,71671,4,-0.220267,1.307234,-11.295844,0.047697,-0.002798,0.008793
1772551343.5745325,1,0.0,71700,1,0.378284,0.632069,-11.535264,0.014256,0.106585,-0.011991
1772551343.5800605,1,0.0,71700,2,0.11971,-0.397437,-11.291056,-0.060753,0.133364,-0.031043
1772551343.5856996,1,0.0,71700,3,1.039083,-2.111686,-11.81778,-0.164274,-0.081671,-0.012391
1772551343.5923367,1,0.0,71700,4,-0.148441,0.905008,-11.353305,0.03957,0.056623,-0.012257
1772551343.6032336,1,0.0,71729,1,0.646434,0.488417,-11.420342,-0.001066,0.098591,-0.03464
1772551343.6086555,1,0.0,71729,2,0.861913,-0.148441,-11.535264,0.011724,0.072611,-0.036239
1772551343.6142673,1,0.0,71729,3,1.666364,-1.886631,-11.563994,-0.147087,-0.082603,-0.01359
1772551343.6209626,1,0.0,71729,4,0.167594,1.331176,-11.899182,0.054625,-0.014789,-0.003064
1772551343.6317647,1,0.0,71758,1,0.474052,0.497994,-11.745954,0.037438,0.078873,-0.033841
1772551343.6372073,1,0.0,71758,2,0.670376,0.181959,-11.348516,-0.007861,0.109783,-0.040369
1772551343.64408,1,0.0,71758,3,1.130063,-2.121263,-11.683704,-0.179862,-0.092729,-0.008127
1772551343.649582,1,0.0,71758,4,-0.258574,1.034295,-11.51611,0.0437,-0.017453,0.001998
1772551343.661635,1,0.0,71787,1,0.186748,0.852336,-11.645397,0.02638,0.089132,-0.023449
1772551343.6670783,1,0.0,71787,2,0.531513,0.076614,-11.688493,-0.002398,0.092596,-0.035706
1772551343.6727169,1,0.0,71787,3,1.206678,-1.939303,-11.410766,-0.193718,-0.097525,-0.008527
1772551343.6781955,1,0.0,71787,4,-0.287304,0.670376,-11.18571,0.029178,-0.022649,0.00373
1772551343.6903212,1,0.0,71816,1,0.263362,0.617704,-11.45865,0.019718,0.088998,-0.022516
1772551343.6975396,1,0.0,71816,2,0.42138,-0.248997,-11.530476,-0.017187,0.09939,-0.038371
1772551343.708107,1,0.0,71816,3,1.211466,-1.924938,-11.190498,-0.168937,-0.105119,-0.02145
1772551343.7131445,1,0.0,71816,4,-0.134075,0.579397,-11.793838,0.048763,-0.039836,-0.004796
1772551343.719515,1,0.0,71845,1,0.354342,0.344765,-11.314998,0.051028,0.093662,-0.027312
1772551343.7246218,1,0.0,71845,2,0.708684,-0.23942,-11.247959,-0.009326,0.074476,-0.047164
1772551343.731283,1,0.0,71845,3,1.383849,-1.714248,-11.669339,-0.172002,-0.107518,-0.020384
1772551343.7367325,1,0.0,71845,4,0.076614,0.646434,-11.626244,0.041701,-0.016387,-0.010925
1772551343.7475092,1,0.0,71874,1,0.588974,0.464475,-11.535264,0.056224,0.075142,-0.030377
1772551343.7542543,1,0.0,71874,2,0.924162,-0.181959,-10.97502,0.001199,0.053692,-0.042767
1772551343.7598102,1,0.0,71874,3,1.297657,-1.374272,-11.640609,-0.18759,-0.098058,-0.013989
1772551343.7654057,1,0.0,71874,4,-0.067038,0.828394,-11.449073,0.030377,-0.005462,-0.007461
1772551343.777435,1,0.0,71903,1,0.555455,0.45011,-11.621455,0.038237,0.062485,-0.03424
1772551343.7828465,1,0.0,71903,2,0.799663,-0.148441,-11.166556,0.005196,0.067015,-0.042101
1772551343.7884429,1,0.0,71903,3,1.340753,-1.474828,-11.669339,-0.184392,-0.117377,-0.019585
1772551343.7952046,1,0.0,71903,4,-0.100556,1.034295,-11.707646,0.050495,-0.027312,-0.003997
1772551343.8060236,1,0.0,71932,1,0.550666,0.349553,-11.525687,0.029977,0.067948,-0.031709
1772551343.8114624,1,0.0,71932,2,0.919373,-0.02873,-11.3964,0.005995,0.060087,-0.039836
1772551343.8170621,1,0.0,71932,3,1.091756,-1.752556,-11.654974,-0.204243,-0.097792,-0.016654
1772551343.8238356,1,0.0,71932,4,-0.11971,0.952892,-11.87524,0.03464,-0.014522,-0.002665
1772551343.8346186,1,0.0,71961,1,0.507571,0.474052,-11.286267,0.047297,0.083403,-0.028911
1772551343.8413846,1,0.0,71961,2,0.914585,0.014365,-11.291056,-0.003331,0.07008,-0.040769
1772551343.846952,1,0.0,71961,3,1.04866,-1.685518,-11.45865,-0.223296,-0.086201,-0.018386
1772551343.8524756,1,0.0,71961,4,-0.177171,0.766145,-11.640609,0.021317,-0.011991,-0.0004
1772551343.8644986,1,0.0,71990,1,0.502782,0.627281,-11.51611,0.038104,0.055424,-0.030243
1772551343.8700578,1,0.0,71990,2,0.727837,-0.081403,-11.310209,-0.007328,0.0866,-0.040369
1772551343.8756905,1,0.0,71990,3,1.01993,-1.383849,-11.252748,-0.198648,-0.082603,-0.021051
1772551343.8824482,1,0.0,71990,4,-0.23942,0.531513,-11.51611,0.036239,-0.007061,-0.000133
1772551343.8985956,1,0.0,72019,1,0.526724,0.493206,-11.563994,0.041435,0.040902,-0.024648
1772551343.9037185,1,0.0,72019,2,0.742203,-0.134075,-11.621455,0.007194,0.086201,-0.039037
1772551343.9099033,1,0.0,72019,3,1.072602,-1.446098,-11.63582,-0.203444,-0.104587,-0.020251
1772551343.9150202,1,0.0,72019,4,-0.110133,0.718261,-11.674128,0.046631,-0.01359,-0.002531
1772551343.9218109,1,0.0,72048,1,0.545878,0.45011,-11.496957,0.038371,0.077674,-0.027446
1772551343.927231,1,0.0,72048,2,0.876278,-0.038307,-11.3964,0.006528,0.076608,-0.039436
1772551343.9340901,1,0.0,72048,3,1.115698,-1.517924,-11.7268,-0.217833,-0.118576,-0.019319
1772551343.939589,1,0.0,72048,4,-0.148441,0.6608,-11.501745,0.028778,-0.004397,-0.001998
1772551343.95164,1,0.0,72077,1,0.560243,0.521936,-11.731588,0.038104,0.074609,-0.028245
1772551343.9570832,1,0.0,72077,2,0.852336,-0.153229,-11.209652,0.0004,0.074609,-0.039436
1772551343.962684,1,0.0,72077,3,1.024718,-1.345541,-11.640609,-0.219698,-0.125637,-0.018386
1772551343.9681578,1,0.0,72077,4,-0.076614,0.665588,-11.506534,0.045032,0.002531,-0.001332
1772551343.9802525,1,0.0,72106,1,0.617704,0.368707,-11.63582,0.034773,0.059688,-0.027446
1772551343.9857068,1,0.0,72106,2,0.895431,-0.138864,-11.305421,0.002265,0.063685,-0.038637
1772551343.9913259,1,0.0,72106,3,1.043872,-1.417367,-11.865664,-0.24408,-0.131366,-0.014789
1772551343.998078,1,0.0,72106,4,-0.062249,0.742203,-11.611878,0.037971,0.005995,-0.00373
1772551344.008894,1,0.0,72135,1,0.651223,0.373495,-11.674128,0.046764,0.067548,-0.027312
1772551344.0144293,1,0.0,72135,2,0.933739,-0.110133,-11.066,-0.003064,0.058222,-0.03917
1772551344.0212955,1,0.0,72135,3,0.957681,-1.25935,-11.554418,-0.211038,-0.102188,-0.015055
1772551344.026735,1,0.0,72135,4,-0.114922,0.636858,-11.444284,0.011058,0.005462,-0.001998
1772551344.0375352,1,0.0,72164,1,0.636858,0.430956,-11.57836,0.027979,0.027046,-0.029711
1772551344.0442889,1,0.0,72164,2,0.933739,-0.191536,-11.257536,-0.00413,0.038637,-0.033308
1772551344.0499256,1,0.0,72164,3,0.871489,-1.221043,-11.520899,-0.10885,-0.034773,-0.015721
1772551344.0568092,1,0.0,72164,4,-0.100556,0.579397,-11.626244,-0.007861,-0.003997,-0.002798
1772551344.0674012,1,0.0,72193,1,0.627281,0.445322,-11.410766,0.00493,0.006662,-0.03051
1772551344.0732846,1,0.0,72193,2,0.957681,-0.110133,-11.425131,-0.007194,0.021583,-0.036505
1772551344.0785606,1,0.0,72193,3,0.967257,-1.278504,-11.75553,-0.119375,-0.054225,-0.01319
1772551344.0854254,1,0.0,72193,4,-0.100556,0.622492,-11.674128,-0.006928,-0.002531,-0.003597
1772551344.095999,1,0.0,72222,1,0.646434,0.54109,-11.314998,0.021051,0.039037,-0.028911
1772551344.1015193,1,0.0,72222,2,1.240196,0.110133,-11.137826,-0.006395,0.030243,-0.031443
1772551344.1070712,1,0.0,72222,3,1.307234,-0.914585,-12.354081,-0.084735,-0.089265,-0.026646
1772551344.1138985,1,0.0,72222,4,-0.181959,0.675165,-11.927913,0.066882,-0.003331,-0.012391
1772551344.1246965,1,0.0,72251,1,0.727837,0.234632,-11.678916,0.01279,0.050894,-0.024381
1772551344.1314452,1,0.0,72251,2,1.369483,-0.105345,-11.176133,0.016254,0.011991,-0.022783
1772551344.1369443,1,0.0,72251,3,0.770933,-1.264138,-11.678916,-0.201446,-0.105786,-0.004796
1772551344.1425035,1,0.0,72251,4,-0.143652,0.914585,-11.520899,0.039969,-0.017453,-0.002665
1772551344.1545367,1,0.0,72280,1,0.770933,0.502782,-11.702858,0.049962,0.056757,-0.019185
1772551344.1599765,1,0.0,72280,2,0.861913,-0.220267,-11.449073,0.017187,0.059554,-0.027579
1772551344.1656306,1,0.0,72280,3,0.742203,-1.134852,-11.583148,-0.196783,-0.09566,-0.010392
1772551344.1709511,1,0.0,72280,4,-0.229843,0.363919,-11.405977,0.036772,0.019985,0.001732
1772551344.1835008,1,0.0,72309,1,0.684742,0.383072,-11.597513,0.039969,0.055691,-0.023182
1772551344.1886714,1,0.0,72309,2,0.890643,-0.033519,-11.45865,-0.011325,0.085934,-0.037172
1772551344.2016113,1,0.0,72309,3,0.92895,-1.154005,-11.554418,-0.26593,-0.171868,-0.014389
1772551344.2066147,1,0.0,72309,4,-0.311246,0.483629,-11.592725,0.022383,0.02185,-0.004663
1772551344.2122936,1,0.0,72338,1,0.593762,0.35913,-11.496957,0.023582,0.03464,-0.028778
1772551344.2175279,1,0.0,72338,2,0.794875,-0.153229,-11.171345,-0.033574,0.096459,-0.0429
1772551344.2241597,1,0.0,72338,3,0.727837,-0.933739,-11.324574,-0.247277,-0.194384,-0.023848
1772551344.2296379,1,0.0,72338,4,-0.21069,0.402226,-11.765107,0.022649,0.025447,-0.00493
1772551344.2416651,1,0.0,72367,1,0.497994,0.287304,-11.463438,0.009859,0.00826,-0.033308
1772551344.2476883,1,0.0,72367,2,1.034295,-0.148441,-11.310209,-0.014655,0.052227,-0.042767
1772551344.2527466,1,0.0,72367,3,0.881066,-0.924162,-11.832145,-0.253006,-0.181994,-0.018253
1772551344.2595134,1,0.0,72367,4,0.038307,0.656011,-11.669339,0.015055,-0.005462,-0.009326
1772551344.270269,1,0.0,72396,1,0.679953,0.387861,-11.544841,0.021184,0.010525,-0.032642
1772551344.2757092,1,0.0,72396,2,1.182736,-0.081403,-11.252748,0.013057,0.040236,-0.040769
1772551344.2813928,1,0.0,72396,3,0.895431,-0.78051,-11.870452,-0.260334,-0.164008,-0.015455
1772551344.288106,1,0.0,72396,4,-0.02873,0.651223,-11.425131,0.014922,-0.014789,-0.004397
1772551344.2988741,1,0.0,72425,1,0.761356,0.397437,-11.69807,0.004796,0.026646,-0.035573
1772551344.3043375,1,0.0,72425,2,1.254562,-0.181959,-11.310209,0.002132,0.033974,-0.037971
1772551344.3112104,1,0.0,72425,3,0.636858,-0.885855,-11.75553,-0.271126,-0.140159,-0.012257
1772551344.3167372,1,0.0,72425,4,-0.014365,0.636858,-11.496957,0.015721,-0.007861,-0.001199
1772551344.3275933,1,0.0,72454,1,0.790087,0.383072,-11.659762,-0.005196,0.028778,-0.031709
1772551344.334286,1,0.0,72454,2,1.125275,-0.110133,-11.434708,0.000266,0.02598,-0.03464
1772551344.339899,1,0.0,72454,3,0.545878,-0.871489,-11.793838,-0.287113,-0.152683,-0.004796
1772551344.3476353,1,0.0,72454,4,-0.081403,0.469264,-11.573571,0.018786,0.012923,-0.002132
1772551344.3617265,1,0.0,72483,1,0.833182,0.383072,-11.597513,0.011458,0.027579,-0.028645
1772551344.3712265,1,0.0,72483,2,1.072602,-0.124498,-11.377247,-0.016654,0.049296,-0.038237
1772551344.3814828,1,0.0,72483,3,0.550666,-0.708684,-11.611878,-0.309496,-0.187989,-0.008527
1772551344.3983781,1,0.0,72483,4,-0.162806,0.440533,-11.63582,0.016121,0.017054,-0.002531
1772551344.4361398,1,0.0,72512,1,0.723049,0.397437,-11.57836,0.014922,0.026913,-0.028778
1772551344.4487953,1,0.0,72512,2,1.01993,-0.172383,-11.305421,-0.018519,0.051161,-0.037571
1772551344.4585376,1,0.0,72512,3,0.411803,-0.612916,-11.554418,-0.277254,-0.181061,-0.014522
1772551344.4634895,1,0.0,72512,4,-0.081403,0.45011,-11.731588,0.013057,0.006528,-0.001998
1772551344.4683073,1,0.0,72541,1,0.756568,0.325611,-11.453861,0.00826,0.003331,-0.029977
1772551344.4732833,1,0.0,72541,2,1.005565,-0.129287,-11.247959,-0.012923,0.03504,-0.036239
1772551344.4786057,1,0.0,72541,3,0.483629,-0.545878,-11.650186,-0.24328,-0.16041,-0.015188
1772551344.4836335,1,0.0,72541,4,-0.062249,0.459687,-11.592725,0.006928,-0.006528,-0.003997
1772551344.4886262,1,0.0,72570,1,0.751779,0.397437,-11.51611,0.005729,0.009992,-0.030377
1772551344.4936364,1,0.0,72570,2,1.086968,-0.129287,-11.319786,-0.007061,0.036639,-0.037038
1772551344.4986272,1,0.0,72570,3,0.464475,-0.512359,-11.750742,-0.231423,-0.130034,-0.014789
1772551344.5035627,1,0.0,72570,4,-0.057461,0.47884,-11.573571,0.005729,-0.010792,-0.003597
1772551344.5084865,1,0.0,72599,1,0.723049,0.35913,-11.664551,-0.006795,0.005462,-0.032375
1772551344.513491,1,0.0,72599,2,1.091756,-0.162806,-11.372458,-0.004397,0.023049,-0.034773
1772551344.5184622,1,0.0,72599,3,0.368707,-0.507571,-11.674128,-0.205842,-0.114579,-0.012524
1772551344.5234144,1,0.0,72599,4,-0.086191,0.407014,-11.63582,-0.001466,0.005329,-0.002665
1772551344.5283291,1,0.0,72628,1,0.751779,0.335188,-11.597513,0.003331,-0.002265,-0.030377
1772551344.5332406,1,0.0,72628,2,1.058237,-0.138864,-11.319786,-0.011724,0.02185,-0.03464
1772551344.5385568,1,0.0,72628,3,0.397437,-0.416591,-11.688493,-0.161743,-0.091397,-0.014389
1772551344.5441387,1,0.0,72628,4,-0.02873,0.416591,-11.568783,-0.014922,-0.005729,-0.003331
1772551344.5491385,1,0.0,72657,1,0.770933,0.373495,-11.583148,0.001865,-0.000133,-0.030776
1772551344.554146,1,0.0,72657,2,1.125275,-0.148441,-11.314998,-0.012657,0.016387,-0.035306
1772551344.5591717,1,0.0,72657,3,0.287304,-0.363919,-11.650186,-0.130833,-0.066882,-0.015988
1772551344.5643585,1,0.0,72657,4,-0.100556,0.459687,-11.631032,-0.014256,0.005329,-0.003198
1772551344.5693495,1,0.0,72686,1,0.746991,0.383072,-11.592725,0.004663,-0.007328,-0.031975
1772551344.574448,1,0.0,72686,2,1.106121,-0.148441,-11.271901,-0.015988,0.020518,-0.03424
1772551344.5795474,1,0.0,72686,3,0.296881,-0.383072,-11.654974,-0.102721,-0.05609,-0.016787
